NO_OF_FRAMES	33387
NO_OF_CAMERAS	3
NO_OF_MARKERS	2
FREQUENCY	100
NO_OF_ANALOG	0
ANALOG_FREQUENCY	0
DESCRIPTION	--
TIME_STAMP	2019-12-04, 14:39:24	5816.87530763
DATA_INCLUDED	3D
MARKER_NAMES		
1	0.00000	681.348	411.750	48.105	0.000	0.000	0.000
2	0.01000	681.530	411.970	47.877	0.000	0.000	0.000
3	0.02000	681.674	412.251	47.674	0.000	0.000	0.000
4	0.03000	681.993	412.503	47.268	0.000	0.000	0.000
5	0.04000	682.259	412.814	46.928	0.000	0.000	0.000
6	0.05000	682.472	413.113	46.721	0.000	0.000	0.000
7	0.06000	682.689	413.342	46.430	0.000	0.000	0.000
8	0.07000	682.890	413.602	46.268	0.000	0.000	0.000
9	0.08000	683.159	413.883	46.008	0.000	0.000	0.000
10	0.09000	683.466	414.117	45.702	0.000	0.000	0.000
11	0.10000	683.742	414.338	45.502	0.000	0.000	0.000
12	0.11000	683.976	414.571	45.310	0.000	0.000	0.000
13	0.12000	684.128	414.843	45.212	0.000	0.000	0.000
14	0.13000	684.438	415.017	44.997	0.000	0.000	0.000
15	0.14000	684.728	415.157	44.817	0.000	0.000	0.000
16	0.15000	685.070	415.258	44.722	0.000	0.000	0.000
17	0.16000	685.356	415.269	44.730	0.000	0.000	0.000
18	0.17000	685.623	415.252	44.774	0.000	0.000	0.000
19	0.18000	685.864	415.174	44.894	0.000	0.000	0.000
20	0.19000	686.084	415.055	45.072	0.000	0.000	0.000
21	0.20000	686.278	415.063	45.146	0.000	0.000	0.000
22	0.21000	686.399	415.098	45.155	0.000	0.000	0.000
23	0.22000	686.495	415.210	45.085	0.000	0.000	0.000
24	0.23000	686.601	415.405	44.940	0.000	0.000	0.000
25	0.24000	686.714	415.583	44.686	0.000	0.000	0.000
26	0.25000	686.896	415.801	44.384	0.000	0.000	0.000
27	0.26000	687.178	415.890	44.072	0.000	0.000	0.000
28	0.27000	687.437	416.029	43.833	0.000	0.000	0.000
29	0.28000	687.570	416.092	43.717	0.000	0.000	0.000
30	0.29000	687.797	416.190	43.524	0.000	0.000	0.000
31	0.30000	688.084	416.301	43.240	0.000	0.000	0.000
32	0.31000	688.358	416.423	42.975	0.000	0.000	0.000
33	0.32000	688.562	416.561	42.781	0.000	0.000	0.000
34	0.33000	688.768	416.708	42.660	0.000	0.000	0.000
35	0.34000	689.088	416.886	42.362	0.000	0.000	0.000
36	0.35000	689.374	417.068	42.109	0.000	0.000	0.000
37	0.36000	689.744	417.291	41.698	0.000	0.000	0.000
38	0.37000	689.997	417.569	41.477	0.000	0.000	0.000
39	0.38000	690.259	417.844	41.198	0.000	0.000	0.000
40	0.39000	690.590	418.184	40.861	0.000	0.000	0.000
41	0.40000	690.845	418.486	40.627	0.000	0.000	0.000
42	0.41000	691.171	418.836	40.397	0.000	0.000	0.000
43	0.42000	691.407	419.134	40.234	0.000	0.000	0.000
44	0.43000	691.600	419.420	40.190	0.000	0.000	0.000
45	0.44000	691.891	419.806	39.924	0.000	0.000	0.000
46	0.45000	692.032	420.126	39.816	0.000	0.000	0.000
47	0.46000	692.007	420.504	39.674	0.000	0.000	0.000
48	0.47000	692.039	420.858	39.475	0.000	0.000	0.000
49	0.48000	692.050	421.208	39.300	0.000	0.000	0.000
50	0.49000	692.096	421.509	39.109	0.000	0.000	0.000
51	0.50000	692.158	421.743	38.988	0.000	0.000	0.000
52	0.51000	692.324	421.869	38.886	0.000	0.000	0.000
53	0.52000	692.449	421.954	38.912	0.000	0.000	0.000
54	0.53000	692.596	421.936	38.985	0.000	0.000	0.000
55	0.54000	692.789	421.903	39.021	0.000	0.000	0.000
56	0.55000	692.792	421.721	39.205	0.000	0.000	0.000
57	0.56000	692.900	421.636	39.251	0.000	0.000	0.000
58	0.57000	692.876	421.545	39.362	0.000	0.000	0.000
59	0.58000	692.808	421.529	39.366	0.000	0.000	0.000
60	0.59000	692.675	421.469	39.458	0.000	0.000	0.000
61	0.60000	692.573	421.603	39.497	0.000	0.000	0.000
62	0.61000	692.474	421.543	39.473	0.000	0.000	0.000
63	0.62000	692.297	421.513	39.512	0.000	0.000	0.000
64	0.63000	692.123	421.401	39.655	0.000	0.000	0.000
65	0.64000	692.053	421.304	39.748	0.000	0.000	0.000
66	0.65000	692.127	421.220	39.766	0.000	0.000	0.000
67	0.66000	691.996	421.241	39.963	0.000	0.000	0.000
68	0.67000	691.899	421.258	40.116	0.000	0.000	0.000
69	0.68000	691.824	421.312	40.138	0.000	0.000	0.000
70	0.69000	691.768	421.400	40.224	0.000	0.000	0.000
71	0.70000	691.695	421.444	40.237	0.000	0.000	0.000
72	0.71000	691.526	421.421	40.365	0.000	0.000	0.000
73	0.72000	691.446	421.437	40.374	0.000	0.000	0.000
74	0.73000	691.407	421.490	40.252	0.000	0.000	0.000
75	0.74000	691.368	421.534	40.152	0.000	0.000	0.000
76	0.75000	691.271	421.644	40.152	0.000	0.000	0.000
77	0.76000	691.189	421.756	40.111	0.000	0.000	0.000
78	0.77000	691.184	421.944	40.102	0.000	0.000	0.000
79	0.78000	691.148	422.093	40.141	0.000	0.000	0.000
80	0.79000	691.206	422.319	40.143	0.000	0.000	0.000
81	0.80000	691.282	422.481	40.120	0.000	0.000	0.000
82	0.81000	691.388	422.633	40.104	0.000	0.000	0.000
83	0.82000	691.453	422.765	40.104	0.000	0.000	0.000
84	0.83000	691.597	422.957	39.983	0.000	0.000	0.000
85	0.84000	691.638	423.139	39.915	0.000	0.000	0.000
86	0.85000	691.835	423.432	39.604	0.000	0.000	0.000
87	0.86000	691.838	423.729	39.438	0.000	0.000	0.000
88	0.87000	691.899	424.170	39.192	0.000	0.000	0.000
89	0.88000	692.006	424.678	38.893	0.000	0.000	0.000
90	0.89000	692.043	425.218	38.697	0.000	0.000	0.000
91	0.90000	692.219	425.865	38.469	0.000	0.000	0.000
92	0.91000	692.519	426.482	38.194	0.000	0.000	0.000
93	0.92000	692.769	427.051	37.960	0.000	0.000	0.000
94	0.93000	693.384	427.754	37.354	0.000	0.000	0.000
95	0.94000	693.748	428.434	36.906	0.000	0.000	0.000
96	0.95000	694.019	429.186	36.529	0.000	0.000	0.000
97	0.96000	694.322	429.875	36.014	0.000	0.000	0.000
98	0.97000	694.766	430.663	35.390	0.000	0.000	0.000
99	0.98000	695.246	431.481	34.684	0.000	0.000	0.000
100	0.99000	695.726	432.374	34.082	0.000	0.000	0.000
101	1.00000	696.545	433.414	33.146	0.000	0.000	0.000
102	1.01000	697.387	434.566	32.179	0.000	0.000	0.000
103	1.02000	698.119	435.749	31.290	0.000	0.000	0.000
104	1.03000	699.100	437.155	30.211	0.000	0.000	0.000
105	1.04000	699.845	438.405	29.335	0.000	0.000	0.000
106	1.05000	700.759	439.743	28.212	0.000	0.000	0.000
107	1.06000	701.511	441.103	27.371	0.000	0.000	0.000
108	1.07000	702.265	442.347	26.430	0.000	0.000	0.000
109	1.08000	702.839	443.593	25.688	0.000	0.000	0.000
110	1.09000	703.339	444.730	24.991	0.000	0.000	0.000
111	1.10000	703.723	445.730	24.405	0.000	0.000	0.000
112	1.11000	704.165	446.626	23.798	0.000	0.000	0.000
113	1.12000	704.585	447.353	23.341	0.000	0.000	0.000
114	1.13000	704.981	448.069	23.007	0.000	0.000	0.000
115	1.14000	705.419	448.562	22.648	0.000	0.000	0.000
116	1.15000	705.946	449.070	22.256	0.000	0.000	0.000
117	1.16000	706.424	449.592	21.957	0.000	0.000	0.000
118	1.17000	706.922	450.027	21.619	0.000	0.000	0.000
119	1.18000	707.246	450.361	21.431	0.000	0.000	0.000
120	1.19000	707.566	450.690	21.124	0.000	0.000	0.000
121	1.20000	707.868	451.026	20.791	0.000	0.000	0.000
122	1.21000	707.971	451.233	20.603	0.000	0.000	0.000
123	1.22000	708.114	451.391	20.344	0.000	0.000	0.000
124	1.23000	708.171	451.454	20.152	0.000	0.000	0.000
125	1.24000	708.242	451.680	19.964	0.000	0.000	0.000
126	1.25000	708.184	451.743	19.916	0.000	0.000	0.000
127	1.26000	708.228	451.935	19.748	0.000	0.000	0.000
128	1.27000	707.941	451.971	20.000	0.000	0.000	0.000
129	1.28000	707.954	452.059	19.925	0.000	0.000	0.000
130	1.29000	707.831	452.131	20.012	0.000	0.000	0.000
131	1.30000	707.691	452.179	20.012	0.000	0.000	0.000
132	1.31000	707.581	452.238	20.004	0.000	0.000	0.000
133	1.32000	707.395	452.285	20.060	0.000	0.000	0.000
134	1.33000	707.311	452.355	19.901	0.000	0.000	0.000
135	1.34000	707.048	452.333	19.927	0.000	0.000	0.000
136	1.35000	706.917	452.412	19.829	0.000	0.000	0.000
137	1.36000	706.749	452.438	19.755	0.000	0.000	0.000
138	1.37000	706.601	452.555	19.696	0.000	0.000	0.000
139	1.38000	706.492	452.649	19.652	0.000	0.000	0.000
140	1.39000	706.372	452.700	19.654	0.000	0.000	0.000
141	1.40000	706.222	452.808	19.692	0.000	0.000	0.000
142	1.41000	706.083	452.912	19.814	0.000	0.000	0.000
143	1.42000	706.031	453.009	19.775	0.000	0.000	0.000
144	1.43000	705.959	453.138	19.799	0.000	0.000	0.000
145	1.44000	705.901	453.294	19.767	0.000	0.000	0.000
146	1.45000	705.820	453.428	19.706	0.000	0.000	0.000
147	1.46000	705.795	453.560	19.572	0.000	0.000	0.000
148	1.47000	705.760	453.627	19.497	0.000	0.000	0.000
149	1.48000	705.745	453.683	19.417	0.000	0.000	0.000
150	1.49000	705.683	453.691	19.449	0.000	0.000	0.000
151	1.50000	705.733	453.691	19.435	0.000	0.000	0.000
152	1.51000	705.792	453.638	19.461	0.000	0.000	0.000
153	1.52000	705.891	453.629	19.530	0.000	0.000	0.000
154	1.53000	705.991	453.639	19.582	0.000	0.000	0.000
155	1.54000	706.058	453.615	19.611	0.000	0.000	0.000
156	1.55000	706.141	453.667	19.602	0.000	0.000	0.000
157	1.56000	706.189	453.678	19.596	0.000	0.000	0.000
158	1.57000	706.249	453.759	19.531	0.000	0.000	0.000
159	1.58000	706.214	453.733	19.514	0.000	0.000	0.000
160	1.59000	706.225	453.756	19.485	0.000	0.000	0.000
161	1.60000	706.259	453.703	19.394	0.000	0.000	0.000
162	1.61000	706.315	453.763	19.300	0.000	0.000	0.000
163	1.62000	706.424	453.786	19.172	0.000	0.000	0.000
164	1.63000	706.484	453.889	19.167	0.000	0.000	0.000
165	1.64000	706.569	454.028	19.096	0.000	0.000	0.000
166	1.65000	706.628	454.176	19.061	0.000	0.000	0.000
167	1.66000	706.745	454.353	19.016	0.000	0.000	0.000
168	1.67000	706.766	454.429	18.949	0.000	0.000	0.000
169	1.68000	706.781	454.456	18.967	0.000	0.000	0.000
170	1.69000	706.841	454.507	18.840	0.000	0.000	0.000
171	1.70000	706.768	454.565	18.759	0.000	0.000	0.000
172	1.71000	706.712	454.620	18.705	0.000	0.000	0.000
173	1.72000	706.619	454.700	18.609	0.000	0.000	0.000
174	1.73000	706.566	454.807	18.501	0.000	0.000	0.000
175	1.74000	706.537	454.855	18.385	0.000	0.000	0.000
176	1.75000	706.482	454.882	18.416	0.000	0.000	0.000
177	1.76000	706.544	454.900	18.371	0.000	0.000	0.000
178	1.77000	706.579	454.992	18.342	0.000	0.000	0.000
179	1.78000	706.516	454.980	18.393	0.000	0.000	0.000
180	1.79000	706.519	455.071	18.378	0.000	0.000	0.000
181	1.80000	706.426	455.067	18.446	0.000	0.000	0.000
182	1.81000	706.312	455.024	18.445	0.000	0.000	0.000
183	1.82000	706.296	454.963	18.464	0.000	0.000	0.000
184	1.83000	706.231	454.846	18.446	0.000	0.000	0.000
185	1.84000	706.205	454.784	18.377	0.000	0.000	0.000
186	1.85000	706.127	454.717	18.348	0.000	0.000	0.000
187	1.86000	706.064	454.672	18.332	0.000	0.000	0.000
188	1.87000	705.889	454.596	18.397	0.000	0.000	0.000
189	1.88000	705.782	454.563	18.419	0.000	0.000	0.000
190	1.89000	705.657	454.509	18.527	0.000	0.000	0.000
191	1.90000	705.549	454.403	18.544	0.000	0.000	0.000
192	1.91000	705.439	454.258	18.596	0.000	0.000	0.000
193	1.92000	705.338	454.077	18.669	0.000	0.000	0.000
194	1.93000	705.172	453.883	18.745	0.000	0.000	0.000
195	1.94000	705.027	453.756	18.749	0.000	0.000	0.000
196	1.95000	704.859	453.653	18.768	0.000	0.000	0.000
197	1.96000	704.652	453.612	18.739	0.000	0.000	0.000
198	1.97000	704.448	453.604	18.745	0.000	0.000	0.000
199	1.98000	704.290	453.639	18.663	0.000	0.000	0.000
200	1.99000	704.150	453.672	18.682	0.000	0.000	0.000
201	2.00000	704.047	453.666	18.662	0.000	0.000	0.000
202	2.01000	703.984	453.712	18.661	0.000	0.000	0.000
203	2.02000	703.874	453.708	18.701	0.000	0.000	0.000
204	2.03000	703.810	453.740	18.720	0.000	0.000	0.000
205	2.04000	703.595	453.786	18.790	0.000	0.000	0.000
206	2.05000	703.463	453.896	18.756	0.000	0.000	0.000
207	2.06000	703.353	453.929	18.688	0.000	0.000	0.000
208	2.07000	703.193	453.925	18.642	0.000	0.000	0.000
209	2.08000	703.062	453.967	18.578	0.000	0.000	0.000
210	2.09000	702.936	454.041	18.521	0.000	0.000	0.000
211	2.10000	702.884	454.090	18.436	0.000	0.000	0.000
212	2.11000	702.834	454.179	18.389	0.000	0.000	0.000
213	2.12000	702.721	454.200	18.418	0.000	0.000	0.000
214	2.13000	702.683	454.317	18.344	0.000	0.000	0.000
215	2.14000	702.658	454.371	18.350	0.000	0.000	0.000
216	2.15000	702.584	454.443	18.351	0.000	0.000	0.000
217	2.16000	702.513	454.464	18.277	0.000	0.000	0.000
218	2.17000	702.495	454.565	18.196	0.000	0.000	0.000
219	2.18000	702.403	454.647	18.100	0.000	0.000	0.000
220	2.19000	702.410	454.739	17.984	0.000	0.000	0.000
221	2.20000	702.264	454.749	17.974	0.000	0.000	0.000
222	2.21000	702.232	454.837	17.855	0.000	0.000	0.000
223	2.22000	702.137	454.892	17.801	0.000	0.000	0.000
224	2.23000	702.101	454.980	17.637	0.000	0.000	0.000
225	2.24000	702.012	455.074	17.594	0.000	0.000	0.000
226	2.25000	701.834	455.188	17.621	0.000	0.000	0.000
227	2.26000	701.851	455.377	17.509	0.000	0.000	0.000
228	2.27000	701.856	455.563	17.409	0.000	0.000	0.000
229	2.28000	701.835	455.778	17.283	0.000	0.000	0.000
230	2.29000	701.854	456.046	17.177	0.000	0.000	0.000
231	2.30000	701.796	456.245	17.115	0.000	0.000	0.000
232	2.31000	701.735	456.366	17.046	0.000	0.000	0.000
233	2.32000	701.727	456.560	16.893	0.000	0.000	0.000
234	2.33000	701.723	456.736	16.727	0.000	0.000	0.000
235	2.34000	701.596	456.910	16.691	0.000	0.000	0.000
236	2.35000	701.510	457.115	16.690	0.000	0.000	0.000
237	2.36000	701.555	457.385	16.528	0.000	0.000	0.000
238	2.37000	701.587	457.577	16.447	0.000	0.000	0.000
239	2.38000	701.648	457.806	16.345	0.000	0.000	0.000
240	2.39000	701.789	458.058	16.202	0.000	0.000	0.000
241	2.40000	701.847	458.259	16.068	0.000	0.000	0.000
242	2.41000	701.778	458.342	16.091	0.000	0.000	0.000
243	2.42000	701.869	458.573	15.904	0.000	0.000	0.000
244	2.43000	701.865	458.730	15.828	0.000	0.000	0.000
245	2.44000	701.935	458.918	15.672	0.000	0.000	0.000
246	2.45000	701.992	459.184	15.492	0.000	0.000	0.000
247	2.46000	702.021	459.395	15.349	0.000	0.000	0.000
248	2.47000	702.184	459.711	15.129	0.000	0.000	0.000
249	2.48000	702.233	459.873	15.014	0.000	0.000	0.000
250	2.49000	702.291	460.009	14.926	0.000	0.000	0.000
251	2.50000	702.557	460.294	14.686	0.000	0.000	0.000
252	2.51000	702.741	460.474	14.482	0.000	0.000	0.000
253	2.52000	702.921	460.701	14.278	0.000	0.000	0.000
254	2.53000	703.094	460.967	14.099	0.000	0.000	0.000
255	2.54000	703.245	461.166	13.920	0.000	0.000	0.000
256	2.55000	703.415	461.405	13.709	0.000	0.000	0.000
257	2.56000	703.512	461.602	13.571	0.000	0.000	0.000
258	2.57000	703.806	461.968	13.282	0.000	0.000	0.000
259	2.58000	703.987	462.299	13.072	0.000	0.000	0.000
260	2.59000	704.162	462.627	12.843	0.000	0.000	0.000
261	2.60000	704.487	463.082	12.480	0.000	0.000	0.000
262	2.61000	704.711	463.393	12.256	0.000	0.000	0.000
263	2.62000	704.949	463.693	12.084	0.000	0.000	0.000
264	2.63000	705.207	463.940	11.939	0.000	0.000	0.000
265	2.64000	705.569	464.302	11.661	0.000	0.000	0.000
266	2.65000	705.890	464.620	11.341	0.000	0.000	0.000
267	2.66000	706.228	465.053	10.977	0.000	0.000	0.000
268	2.67000	706.444	465.493	10.719	0.000	0.000	0.000
269	2.68000	706.667	465.895	10.436	0.000	0.000	0.000
270	2.69000	706.919	466.288	10.088	0.000	0.000	0.000
271	2.70000	707.237	466.675	9.752	0.000	0.000	0.000
272	2.71000	707.457	466.894	9.543	0.000	0.000	0.000
273	2.72000	707.696	466.986	9.355	0.000	0.000	0.000
274	2.73000	707.985	467.160	9.162	0.000	0.000	0.000
275	2.74000	708.322	467.374	8.877	0.000	0.000	0.000
276	2.75000	708.624	467.673	8.573	0.000	0.000	0.000
277	2.76000	708.876	467.962	8.305	0.000	0.000	0.000
278	2.77000	709.111	468.249	8.007	0.000	0.000	0.000
279	2.78000	709.284	468.490	7.766	0.000	0.000	0.000
280	2.79000	709.507	468.736	7.515	0.000	0.000	0.000
281	2.80000	709.762	468.910	7.217	0.000	0.000	0.000
282	2.81000	710.014	469.029	6.899	0.000	0.000	0.000
283	2.82000	710.159	469.137	6.660	0.000	0.000	0.000
284	2.83000	710.153	469.099	6.502	0.000	0.000	0.000
285	2.84000	710.047	469.051	6.365	0.000	0.000	0.000
286	2.85000	709.833	468.875	6.261	0.000	0.000	0.000
287	2.86000	709.494	468.698	6.214	0.000	0.000	0.000
288	2.87000	709.008	468.323	6.170	0.000	0.000	0.000
289	2.88000	708.400	467.716	6.254	0.000	0.000	0.000
290	2.89000	707.551	466.780	6.626	0.000	0.000	0.000
291	2.90000	706.748	465.707	6.807	0.000	0.000	0.000
292	2.91000	705.714	464.278	7.302	0.000	0.000	0.000
293	2.92000	704.433	462.666	7.883	0.000	0.000	0.000
294	2.93000	702.941	460.869	8.651	0.000	0.000	0.000
295	2.94000	701.211	458.895	9.449	0.000	0.000	0.000
296	2.95000	699.297	456.853	10.278	0.000	0.000	0.000
297	2.96000	697.053	454.618	11.272	0.000	0.000	0.000
298	2.97000	694.524	452.416	12.423	0.000	0.000	0.000
299	2.98000	691.789	450.220	13.621	0.000	0.000	0.000
300	2.99000	688.531	447.864	15.248	0.000	0.000	0.000
301	3.00000	685.074	445.373	17.027	0.000	0.000	0.000
302	3.01000	681.409	442.663	19.107	0.000	0.000	0.000
303	3.02000	677.506	439.689	21.432	0.000	0.000	0.000
304	3.03000	673.338	436.374	24.056	0.000	0.000	0.000
305	3.04000	668.962	432.827	26.925	0.000	0.000	0.000
306	3.05000	664.420	429.025	30.026	0.000	0.000	0.000
307	3.06000	659.623	424.882	33.266	0.000	0.000	0.000
308	3.07000	654.566	420.364	36.805	0.000	0.000	0.000
309	3.08000	648.980	415.473	40.822	0.000	0.000	0.000
310	3.09000	643.025	410.270	45.137	0.000	0.000	0.000
311	3.10000	636.410	404.507	50.212	0.000	0.000	0.000
312	3.11000	629.236	398.172	55.935	0.000	0.000	0.000
313	3.12000	621.611	391.230	62.364	0.000	0.000	0.000
314	3.13000	613.453	383.463	69.692	0.000	0.000	0.000
315	3.14000	604.839	375.077	78.126	0.000	0.000	0.000
316	3.15000	596.113	365.984	87.337	0.000	0.000	0.000
317	3.16000	587.046	356.120	97.583	0.000	0.000	0.000
318	3.17000	577.835	345.663	108.800	0.000	0.000	0.000
319	3.18000	568.635	334.757	120.751	0.000	0.000	0.000
320	3.19000	559.207	323.497	133.809	0.000	0.000	0.000
321	3.20000	549.670	312.064	147.755	0.000	0.000	0.000
322	3.21000	539.869	300.448	162.853	0.000	0.000	0.000
323	3.22000	530.095	288.732	178.901	0.000	0.000	0.000
324	3.23000	520.276	276.959	196.142	0.000	0.000	0.000
325	3.24000	510.677	264.994	214.385	0.000	0.000	0.000
326	3.25000	501.387	253.305	233.629	0.000	0.000	0.000
327	3.26000	492.369	241.814	253.586	0.000	0.000	0.000
328	3.27000	483.836	230.825	274.029	0.000	0.000	0.000
329	3.28000	475.803	220.414	294.992	0.000	0.000	0.000
330	3.29000	468.238	210.536	316.396	0.000	0.000	0.000
331	3.30000	461.200	201.156	338.110	0.000	0.000	0.000
332	3.31000	454.591	192.246	360.215	0.000	0.000	0.000
333	3.32000	448.444	184.103	382.519	0.000	0.000	0.000
334	3.33000	442.654	176.766	405.113	0.000	0.000	0.000
335	3.34000	437.155	170.244	428.007	0.000	0.000	0.000
336	3.35000	432.162	164.298	450.967	0.000	0.000	0.000
337	3.36000	427.753	158.786	474.006	0.000	0.000	0.000
338	3.37000	423.829	153.731	497.012	0.000	0.000	0.000
339	3.38000	420.466	149.187	519.838	0.000	0.000	0.000
340	3.39000	417.499	145.388	542.542	0.000	0.000	0.000
341	3.40000	414.890	142.318	565.001	0.000	0.000	0.000
342	3.41000	412.837	139.987	587.114	0.000	0.000	0.000
343	3.42000	411.192	138.111	608.977	0.000	0.000	0.000
344	3.43000	410.086	136.672	630.382	0.000	0.000	0.000
345	3.44000	409.551	135.558	651.170	0.000	0.000	0.000
346	3.45000	409.388	134.873	671.565	0.000	0.000	0.000
347	3.46000	409.605	134.604	691.434	0.000	0.000	0.000
348	3.47000	410.120	134.864	710.958	0.000	0.000	0.000
349	3.48000	410.868	135.646	730.031	0.000	0.000	0.000
350	3.49000	411.906	136.710	748.560	0.000	0.000	0.000
351	3.50000	413.338	137.900	766.511	0.000	0.000	0.000
352	3.51000	415.106	139.205	783.831	0.000	0.000	0.000
353	3.52000	417.089	140.692	800.597	0.000	0.000	0.000
354	3.53000	419.230	142.515	816.928	0.000	0.000	0.000
355	3.54000	421.537	144.567	832.673	0.000	0.000	0.000
356	3.55000	424.030	146.801	847.888	0.000	0.000	0.000
357	3.56000	426.724	149.196	862.507	0.000	0.000	0.000
358	3.57000	429.505	151.610	876.403	0.000	0.000	0.000
359	3.58000	432.401	154.062	889.323	0.000	0.000	0.000
360	3.59000	435.266	156.466	901.228	0.000	0.000	0.000
361	3.60000	437.948	158.855	911.938	0.000	0.000	0.000
362	3.61000	440.372	161.160	921.311	0.000	0.000	0.000
363	3.62000	442.573	163.419	929.482	0.000	0.000	0.000
364	3.63000	444.469	165.536	936.595	0.000	0.000	0.000
365	3.64000	446.263	167.458	942.810	0.000	0.000	0.000
366	3.65000	448.116	169.140	948.224	0.000	0.000	0.000
367	3.66000	0.000	0.000	0.000	0.000	0.000	0.000
368	3.67000	0.000	0.000	0.000	0.000	0.000	0.000
369	3.68000	0.000	0.000	0.000	0.000	0.000	0.000
370	3.69000	0.000	0.000	0.000	0.000	0.000	0.000
371	3.70000	0.000	0.000	0.000	0.000	0.000	0.000
372	3.71000	0.000	0.000	0.000	0.000	0.000	0.000
373	3.72000	0.000	0.000	0.000	0.000	0.000	0.000
374	3.73000	0.000	0.000	0.000	0.000	0.000	0.000
375	3.74000	0.000	0.000	0.000	0.000	0.000	0.000
376	3.75000	0.000	0.000	0.000	0.000	0.000	0.000
377	3.76000	0.000	0.000	0.000	0.000	0.000	0.000
378	3.77000	0.000	0.000	0.000	0.000	0.000	0.000
379	3.78000	0.000	0.000	0.000	0.000	0.000	0.000
380	3.79000	0.000	0.000	0.000	0.000	0.000	0.000
381	3.80000	0.000	0.000	0.000	0.000	0.000	0.000
382	3.81000	0.000	0.000	0.000	0.000	0.000	0.000
383	3.82000	0.000	0.000	0.000	0.000	0.000	0.000
384	3.83000	0.000	0.000	0.000	0.000	0.000	0.000
385	3.84000	0.000	0.000	0.000	0.000	0.000	0.000
386	3.85000	0.000	0.000	0.000	0.000	0.000	0.000
387	3.86000	0.000	0.000	0.000	0.000	0.000	0.000
388	3.87000	0.000	0.000	0.000	0.000	0.000	0.000
389	3.88000	0.000	0.000	0.000	0.000	0.000	0.000
390	3.89000	0.000	0.000	0.000	0.000	0.000	0.000
391	3.90000	0.000	0.000	0.000	0.000	0.000	0.000
392	3.91000	0.000	0.000	0.000	0.000	0.000	0.000
393	3.92000	0.000	0.000	0.000	0.000	0.000	0.000
394	3.93000	0.000	0.000	0.000	0.000	0.000	0.000
395	3.94000	0.000	0.000	0.000	0.000	0.000	0.000
396	3.95000	0.000	0.000	0.000	0.000	0.000	0.000
397	3.96000	0.000	0.000	0.000	464.403	167.301	955.907
398	3.97000	0.000	0.000	0.000	464.301	166.832	954.588
399	3.98000	0.000	0.000	0.000	464.199	166.348	953.377
400	3.99000	0.000	0.000	0.000	464.021	165.883	952.164
401	4.00000	0.000	0.000	0.000	463.766	165.411	950.940
402	4.01000	0.000	0.000	0.000	463.521	164.969	949.658
403	4.02000	0.000	0.000	0.000	463.165	164.556	948.361
404	4.03000	0.000	0.000	0.000	462.880	164.139	947.160
405	4.04000	0.000	0.000	0.000	462.609	163.770	946.102
406	4.05000	0.000	0.000	0.000	462.442	163.368	945.124
407	4.06000	0.000	0.000	0.000	462.271	162.986	944.278
408	4.07000	0.000	0.000	0.000	462.180	162.636	943.453
409	4.08000	0.000	0.000	0.000	462.058	162.267	942.660
410	4.09000	0.000	0.000	0.000	461.930	161.973	941.874
411	4.10000	0.000	0.000	0.000	461.756	161.718	941.055
412	4.11000	0.000	0.000	0.000	461.530	161.476	940.214
413	4.12000	0.000	0.000	0.000	461.276	161.208	939.323
414	4.13000	0.000	0.000	0.000	461.011	160.942	938.385
415	4.14000	0.000	0.000	0.000	460.721	160.681	937.451
416	4.15000	0.000	0.000	0.000	460.421	160.394	936.446
417	4.16000	0.000	0.000	0.000	460.150	160.156	935.469
418	4.17000	0.000	0.000	0.000	459.947	159.879	934.382
419	4.18000	0.000	0.000	0.000	459.721	159.553	933.249
420	4.19000	0.000	0.000	0.000	459.479	159.157	932.053
421	4.20000	0.000	0.000	0.000	459.244	158.795	930.742
422	4.21000	0.000	0.000	0.000	458.955	158.426	929.381
423	4.22000	0.000	0.000	0.000	458.580	158.133	928.084
424	4.23000	0.000	0.000	0.000	458.214	157.859	926.629
425	4.24000	0.000	0.000	0.000	457.799	157.595	925.183
426	4.25000	0.000	0.000	0.000	457.440	157.352	923.680
427	4.26000	0.000	0.000	0.000	457.149	157.043	922.139
428	4.27000	0.000	0.000	0.000	456.883	156.595	920.512
429	4.28000	0.000	0.000	0.000	456.612	156.102	918.784
430	4.29000	0.000	0.000	0.000	456.260	155.602	916.936
431	4.30000	0.000	0.000	0.000	455.915	155.089	914.957
432	4.31000	0.000	0.000	0.000	455.466	154.592	912.890
433	4.32000	0.000	0.000	0.000	455.113	154.146	910.736
434	4.33000	0.000	0.000	0.000	454.636	153.618	908.575
435	4.34000	0.000	0.000	0.000	454.233	153.091	906.298
436	4.35000	0.000	0.000	0.000	453.722	152.564	904.137
437	4.36000	0.000	0.000	0.000	453.260	152.081	901.998
438	4.37000	0.000	0.000	0.000	452.782	151.617	900.009
439	4.38000	0.000	0.000	0.000	452.362	151.244	898.164
440	4.39000	0.000	0.000	0.000	452.046	150.839	896.410
441	4.40000	0.000	0.000	0.000	451.760	150.423	894.845
442	4.41000	0.000	0.000	0.000	451.569	149.967	893.402
443	4.42000	0.000	0.000	0.000	451.382	149.497	892.073
444	4.43000	0.000	0.000	0.000	451.198	149.053	890.847
445	4.44000	0.000	0.000	0.000	451.032	148.717	889.826
446	4.45000	0.000	0.000	0.000	450.818	148.459	888.934
447	4.46000	0.000	0.000	0.000	450.733	148.267	888.034
448	4.47000	0.000	0.000	0.000	450.551	148.025	887.250
449	4.48000	0.000	0.000	0.000	450.453	147.754	886.437
450	4.49000	0.000	0.000	0.000	450.407	147.479	885.658
451	4.50000	0.000	0.000	0.000	450.312	147.171	884.917
452	4.51000	0.000	0.000	0.000	450.254	146.962	884.232
453	4.52000	0.000	0.000	0.000	450.156	146.698	883.591
454	4.53000	0.000	0.000	0.000	450.151	146.443	882.959
455	4.54000	0.000	0.000	0.000	450.135	146.132	882.387
456	4.55000	0.000	0.000	0.000	450.166	145.783	881.778
457	4.56000	0.000	0.000	0.000	450.216	145.451	881.206
458	4.57000	0.000	0.000	0.000	450.243	145.131	880.645
459	4.58000	0.000	0.000	0.000	450.344	144.840	880.145
460	4.59000	0.000	0.000	0.000	450.420	144.543	879.629
461	4.60000	0.000	0.000	0.000	450.482	144.262	879.140
462	4.61000	0.000	0.000	0.000	450.539	143.959	878.601
463	4.62000	0.000	0.000	0.000	450.536	143.675	878.030
464	4.63000	0.000	0.000	0.000	450.495	143.492	877.513
465	4.64000	0.000	0.000	0.000	450.441	143.292	876.936
466	4.65000	0.000	0.000	0.000	450.442	143.153	876.348
467	4.66000	0.000	0.000	0.000	450.421	142.985	875.772
468	4.67000	0.000	0.000	0.000	450.412	142.810	875.199
469	4.68000	0.000	0.000	0.000	450.412	142.647	874.640
470	4.69000	0.000	0.000	0.000	450.420	142.586	874.144
471	4.70000	0.000	0.000	0.000	450.414	142.495	873.727
472	4.71000	0.000	0.000	0.000	450.453	142.471	873.399
473	4.72000	0.000	0.000	0.000	450.470	142.454	873.084
474	4.73000	0.000	0.000	0.000	450.569	142.439	872.726
475	4.74000	0.000	0.000	0.000	450.651	142.435	872.427
476	4.75000	0.000	0.000	0.000	450.695	142.435	872.150
477	4.76000	0.000	0.000	0.000	450.754	142.442	871.920
478	4.77000	0.000	0.000	0.000	450.879	142.503	871.783
479	4.78000	0.000	0.000	0.000	450.957	142.614	871.705
480	4.79000	0.000	0.000	0.000	451.082	142.714	871.624
481	4.80000	0.000	0.000	0.000	451.200	142.761	871.523
482	4.81000	0.000	0.000	0.000	451.289	142.784	871.410
483	4.82000	0.000	0.000	0.000	451.452	142.833	871.326
484	4.83000	0.000	0.000	0.000	451.633	142.929	871.265
485	4.84000	0.000	0.000	0.000	451.792	143.024	871.235
486	4.85000	0.000	0.000	0.000	451.965	143.129	871.282
487	4.86000	0.000	0.000	0.000	452.176	143.230	871.308
488	4.87000	0.000	0.000	0.000	452.438	143.269	871.295
489	4.88000	0.000	0.000	0.000	452.675	143.343	871.337
490	4.89000	0.000	0.000	0.000	452.923	143.452	871.372
491	4.90000	0.000	0.000	0.000	453.131	143.608	871.529
492	4.91000	0.000	0.000	0.000	453.407	143.810	871.687
493	4.92000	0.000	0.000	0.000	453.681	143.954	871.866
494	4.93000	0.000	0.000	0.000	453.966	144.047	872.018
495	4.94000	0.000	0.000	0.000	454.241	144.145	872.160
496	4.95000	0.000	0.000	0.000	454.472	144.291	872.354
497	4.96000	0.000	0.000	0.000	454.695	144.492	872.598
498	4.97000	0.000	0.000	0.000	454.934	144.782	872.949
499	4.98000	0.000	0.000	0.000	455.195	145.066	873.288
500	4.99000	0.000	0.000	0.000	455.435	145.290	873.662
501	5.00000	0.000	0.000	0.000	455.766	145.552	873.986
502	5.01000	0.000	0.000	0.000	455.999	145.819	874.382
503	5.02000	0.000	0.000	0.000	456.182	146.157	874.808
504	5.03000	0.000	0.000	0.000	456.293	146.556	875.312
505	5.04000	0.000	0.000	0.000	456.392	146.987	875.799
506	5.05000	0.000	0.000	0.000	456.513	147.380	876.313
507	5.06000	0.000	0.000	0.000	456.628	147.803	876.772
508	5.07000	0.000	0.000	0.000	456.691	148.195	877.195
509	5.08000	0.000	0.000	0.000	456.793	148.690	877.645
510	5.09000	0.000	0.000	0.000	456.800	149.198	878.151
511	5.10000	0.000	0.000	0.000	456.810	149.779	878.687
512	5.11000	0.000	0.000	0.000	456.818	150.315	879.210
513	5.12000	0.000	0.000	0.000	456.850	150.816	879.774
514	5.13000	0.000	0.000	0.000	456.967	151.328	880.284
515	5.14000	0.000	0.000	0.000	456.986	151.791	880.832
516	5.15000	0.000	0.000	0.000	457.066	152.339	881.427
517	5.16000	0.000	0.000	0.000	457.101	152.822	881.979
518	5.17000	0.000	0.000	0.000	457.142	153.289	882.527
519	5.18000	0.000	0.000	0.000	457.096	153.714	882.977
520	5.19000	0.000	0.000	0.000	457.056	154.116	883.447
521	5.20000	0.000	0.000	0.000	456.928	154.490	883.786
522	5.21000	0.000	0.000	0.000	456.748	154.911	884.174
523	5.22000	0.000	0.000	0.000	456.562	155.322	884.477
524	5.23000	0.000	0.000	0.000	456.338	155.719	884.797
525	5.24000	0.000	0.000	0.000	456.088	156.090	885.145
526	5.25000	0.000	0.000	0.000	455.883	156.381	885.482
527	5.26000	0.000	0.000	0.000	455.747	156.660	885.825
528	5.27000	0.000	0.000	0.000	455.606	156.898	886.209
529	5.28000	0.000	0.000	0.000	455.436	157.208	886.677
530	5.29000	0.000	0.000	0.000	455.255	157.503	887.204
531	5.30000	0.000	0.000	0.000	455.197	157.775	887.687
532	5.31000	0.000	0.000	0.000	455.114	157.994	888.212
533	5.32000	0.000	0.000	0.000	455.035	158.166	888.589
534	5.33000	0.000	0.000	0.000	454.884	158.386	888.976
535	5.34000	0.000	0.000	0.000	454.639	158.629	889.242
536	5.35000	0.000	0.000	0.000	454.352	158.967	889.507
537	5.36000	0.000	0.000	0.000	454.151	159.287	889.688
538	5.37000	0.000	0.000	0.000	453.928	159.593	889.846
539	5.38000	0.000	0.000	0.000	453.741	159.921	890.079
540	5.39000	0.000	0.000	0.000	453.565	160.283	890.394
541	5.40000	0.000	0.000	0.000	453.349	160.779	890.849
542	5.41000	0.000	0.000	0.000	453.184	161.401	891.462
543	5.42000	0.000	0.000	0.000	453.060	162.042	892.112
544	5.43000	0.000	0.000	0.000	452.963	162.655	892.871
545	5.44000	0.000	0.000	0.000	452.935	163.223	893.573
546	5.45000	0.000	0.000	0.000	452.921	163.761	894.274
547	5.46000	0.000	0.000	0.000	452.975	164.310	894.969
548	5.47000	0.000	0.000	0.000	453.059	164.840	895.677
549	5.48000	0.000	0.000	0.000	453.187	165.394	896.365
550	5.49000	0.000	0.000	0.000	453.365	165.843	897.016
551	5.50000	0.000	0.000	0.000	453.614	166.209	897.547
552	5.51000	0.000	0.000	0.000	453.905	166.500	898.018
553	5.52000	0.000	0.000	0.000	454.142	166.800	898.405
554	5.53000	0.000	0.000	0.000	454.257	167.114	898.713
555	5.54000	0.000	0.000	0.000	454.385	167.426	898.888
556	5.55000	0.000	0.000	0.000	454.448	167.726	898.951
557	5.56000	0.000	0.000	0.000	454.453	167.961	898.892
558	5.57000	0.000	0.000	0.000	454.425	168.175	898.844
559	5.58000	0.000	0.000	0.000	454.337	168.398	898.744
560	5.59000	0.000	0.000	0.000	454.225	168.741	898.780
561	5.60000	0.000	0.000	0.000	454.098	169.155	898.802
562	5.61000	0.000	0.000	0.000	453.808	169.589	898.889
563	5.62000	0.000	0.000	0.000	453.671	170.010	898.908
564	5.63000	0.000	0.000	0.000	453.466	170.332	898.914
565	5.64000	0.000	0.000	0.000	453.319	170.691	898.915
566	5.65000	0.000	0.000	0.000	453.135	171.036	898.932
567	5.66000	0.000	0.000	0.000	452.983	171.424	898.989
568	5.67000	0.000	0.000	0.000	452.821	171.832	899.105
569	5.68000	0.000	0.000	0.000	452.714	172.229	899.257
570	5.69000	0.000	0.000	0.000	452.635	172.498	899.375
571	5.70000	0.000	0.000	0.000	452.544	172.744	899.435
572	5.71000	0.000	0.000	0.000	452.446	172.967	899.445
573	5.72000	0.000	0.000	0.000	452.302	173.213	899.533
574	5.73000	0.000	0.000	0.000	452.157	173.477	899.625
575	5.74000	0.000	0.000	0.000	452.027	173.727	899.714
576	5.75000	0.000	0.000	0.000	451.936	173.919	899.762
577	5.76000	0.000	0.000	0.000	451.887	173.986	899.737
578	5.77000	0.000	0.000	0.000	451.880	173.994	899.656
579	5.78000	0.000	0.000	0.000	451.916	173.988	899.597
580	5.79000	0.000	0.000	0.000	452.029	174.047	899.543
581	5.80000	0.000	0.000	0.000	452.020	174.163	899.603
582	5.81000	0.000	0.000	0.000	452.072	174.218	899.633
583	5.82000	0.000	0.000	0.000	452.217	174.195	899.543
584	5.83000	0.000	0.000	0.000	452.361	174.089	899.392
585	5.84000	0.000	0.000	0.000	452.527	173.945	899.149
586	5.85000	0.000	0.000	0.000	452.630	173.795	898.966
587	5.86000	0.000	0.000	0.000	452.756	173.662	898.742
588	5.87000	0.000	0.000	0.000	452.818	173.559	898.594
589	5.88000	0.000	0.000	0.000	452.848	173.473	898.433
590	5.89000	0.000	0.000	0.000	452.841	173.377	898.225
591	5.90000	0.000	0.000	0.000	452.841	173.270	897.972
592	5.91000	0.000	0.000	0.000	452.861	173.095	897.672
593	5.92000	0.000	0.000	0.000	453.002	172.874	897.286
594	5.93000	0.000	0.000	0.000	453.150	172.567	896.888
595	5.94000	0.000	0.000	0.000	453.280	172.245	896.546
596	5.95000	0.000	0.000	0.000	453.389	171.908	896.176
597	5.96000	0.000	0.000	0.000	453.551	171.644	895.832
598	5.97000	0.000	0.000	0.000	453.604	171.339	895.467
599	5.98000	0.000	0.000	0.000	453.637	171.034	895.133
600	5.99000	0.000	0.000	0.000	453.749	170.683	894.686
601	6.00000	0.000	0.000	0.000	453.857	170.205	894.189
602	6.01000	0.000	0.000	0.000	454.000	169.694	893.716
603	6.02000	0.000	0.000	0.000	454.058	169.168	893.265
604	6.03000	0.000	0.000	0.000	454.148	168.721	892.855
605	6.04000	0.000	0.000	0.000	454.206	168.356	892.471
606	6.05000	0.000	0.000	0.000	454.170	167.922	892.099
607	6.06000	0.000	0.000	0.000	454.174	167.461	891.608
608	6.07000	0.000	0.000	0.000	454.125	166.917	891.069
609	6.08000	0.000	0.000	0.000	454.112	166.344	890.427
610	6.09000	0.000	0.000	0.000	453.983	165.773	889.748
611	6.10000	0.000	0.000	0.000	453.897	165.245	888.989
612	6.11000	0.000	0.000	0.000	453.786	164.707	888.160
613	6.12000	0.000	0.000	0.000	453.676	164.144	887.242
614	6.13000	0.000	0.000	0.000	453.525	163.575	886.147
615	6.14000	0.000	0.000	0.000	453.343	162.941	884.866
616	6.15000	0.000	0.000	0.000	453.113	162.285	883.436
617	6.16000	0.000	0.000	0.000	452.868	161.577	881.841
618	6.17000	0.000	0.000	0.000	452.617	160.867	880.030
619	6.18000	0.000	0.000	0.000	452.387	160.100	877.945
620	6.19000	0.000	0.000	0.000	452.167	159.327	875.658
621	6.20000	0.000	0.000	0.000	451.893	158.501	873.099
622	6.21000	0.000	0.000	0.000	451.757	157.634	870.183
623	6.22000	0.000	0.000	0.000	451.758	156.672	866.865
624	6.23000	0.000	0.000	0.000	451.810	155.513	863.097
625	6.24000	0.000	0.000	0.000	451.999	154.189	858.751
626	6.25000	0.000	0.000	0.000	452.188	152.649	853.563
627	6.26000	0.000	0.000	0.000	452.256	150.995	847.468
628	6.27000	0.000	0.000	0.000	452.164	149.270	840.207
629	6.28000	0.000	0.000	0.000	451.831	147.680	831.719
630	6.29000	0.000	0.000	0.000	451.098	146.242	822.127
631	6.30000	0.000	0.000	0.000	450.206	145.082	811.331
632	6.31000	0.000	0.000	0.000	449.198	143.962	799.578
633	6.32000	0.000	0.000	0.000	448.325	142.811	786.917
634	6.33000	0.000	0.000	0.000	447.641	141.613	773.628
635	6.34000	0.000	0.000	0.000	447.250	140.346	759.655
636	6.35000	0.000	0.000	0.000	447.068	139.139	745.218
637	6.36000	0.000	0.000	0.000	447.033	138.144	730.434
638	6.37000	0.000	0.000	0.000	447.095	137.471	715.373
639	6.38000	0.000	0.000	0.000	447.321	137.057	699.849
640	6.39000	0.000	0.000	0.000	447.628	136.832	683.918
641	6.40000	0.000	0.000	0.000	448.086	136.853	667.415
642	6.41000	0.000	0.000	0.000	448.795	137.127	650.440
643	6.42000	0.000	0.000	0.000	449.728	137.732	633.036
644	6.43000	0.000	0.000	0.000	450.945	138.610	615.293
645	6.44000	0.000	0.000	0.000	452.524	139.709	597.257
646	6.45000	0.000	0.000	0.000	454.450	141.064	578.995
647	6.46000	0.000	0.000	0.000	456.640	142.676	560.418
648	6.47000	0.000	0.000	0.000	459.094	144.618	541.550
649	6.48000	0.000	0.000	0.000	461.876	146.884	522.303
650	6.49000	0.000	0.000	0.000	464.969	149.550	502.865
651	6.50000	0.000	0.000	0.000	468.446	152.689	483.196
652	6.51000	0.000	0.000	0.000	472.186	156.260	463.475
653	6.52000	0.000	0.000	0.000	476.167	160.324	443.766
654	6.53000	0.000	0.000	0.000	480.421	164.762	424.025
655	6.54000	0.000	0.000	0.000	484.910	169.589	404.439
656	6.55000	0.000	0.000	0.000	489.815	174.746	384.721
657	6.56000	0.000	0.000	0.000	494.945	180.425	365.311
658	6.57000	0.000	0.000	0.000	500.237	186.450	346.326
659	6.58000	0.000	0.000	0.000	505.786	192.999	327.833
660	6.59000	0.000	0.000	0.000	511.624	199.987	309.742
661	6.60000	0.000	0.000	0.000	517.634	207.381	292.093
662	6.61000	0.000	0.000	0.000	523.930	214.988	274.766
663	6.62000	0.000	0.000	0.000	530.393	223.058	257.792
664	6.63000	0.000	0.000	0.000	536.963	231.372	241.288
665	6.64000	0.000	0.000	0.000	543.593	240.086	225.439
666	6.65000	0.000	0.000	0.000	550.205	249.073	210.204
667	6.66000	0.000	0.000	0.000	556.965	258.342	195.492
668	6.67000	0.000	0.000	0.000	563.837	267.904	181.395
669	6.68000	0.000	0.000	0.000	570.798	277.716	167.694
670	6.69000	0.000	0.000	0.000	577.787	287.735	154.653
671	6.70000	0.000	0.000	0.000	584.775	297.939	142.364
672	6.71000	0.000	0.000	0.000	591.943	308.082	130.722
673	6.72000	0.000	0.000	0.000	599.168	317.767	119.932
674	6.73000	0.000	0.000	0.000	606.713	327.039	109.591
675	6.74000	0.000	0.000	0.000	614.226	335.942	99.931
676	6.75000	0.000	0.000	0.000	621.553	344.732	90.875
677	6.76000	0.000	0.000	0.000	628.288	353.282	82.567
678	6.77000	0.000	0.000	0.000	634.556	361.795	74.966
679	6.78000	0.000	0.000	0.000	640.483	370.043	68.054
680	6.79000	0.000	0.000	0.000	646.302	377.573	61.783
681	6.80000	0.000	0.000	0.000	651.935	384.515	56.239
682	6.81000	0.000	0.000	0.000	657.656	390.681	50.972
683	6.82000	0.000	0.000	0.000	663.199	396.454	46.131
684	6.83000	0.000	0.000	0.000	668.378	401.989	41.671
685	6.84000	0.000	0.000	0.000	672.940	407.482	37.749
686	6.85000	0.000	0.000	0.000	676.949	412.947	34.220
687	6.86000	0.000	0.000	0.000	680.727	418.217	30.915
688	6.87000	0.000	0.000	0.000	684.358	423.180	27.904
689	6.88000	0.000	0.000	0.000	687.697	427.536	25.408
690	6.89000	0.000	0.000	0.000	691.074	431.373	23.152
691	6.90000	0.000	0.000	0.000	694.301	434.748	21.275
692	6.91000	0.000	0.000	0.000	697.475	437.855	19.403
693	6.92000	0.000	0.000	0.000	700.270	440.898	17.763
694	6.93000	0.000	0.000	0.000	702.666	443.880	16.184
695	6.94000	0.000	0.000	0.000	704.609	446.938	14.792
696	6.95000	0.000	0.000	0.000	706.347	450.132	13.394
697	6.96000	0.000	0.000	0.000	707.710	453.079	12.311
698	6.97000	0.000	0.000	0.000	708.911	455.650	11.318
699	6.98000	0.000	0.000	0.000	709.787	457.657	10.762
700	6.99000	0.000	0.000	0.000	710.687	459.279	10.355
701	7.00000	0.000	0.000	0.000	711.210	460.316	10.270
702	7.01000	0.000	0.000	0.000	711.687	461.064	10.291
703	7.02000	0.000	0.000	0.000	711.875	461.495	10.589
704	7.03000	0.000	0.000	0.000	711.971	461.670	10.868
705	7.04000	0.000	0.000	0.000	712.018	461.671	11.283
706	7.05000	0.000	0.000	0.000	712.008	461.525	11.630
707	7.06000	0.000	0.000	0.000	711.893	461.244	12.124
708	7.07000	0.000	0.000	0.000	711.663	460.809	12.649
709	7.08000	0.000	0.000	0.000	711.289	460.130	13.322
710	7.09000	0.000	0.000	0.000	710.983	459.500	13.806
711	7.10000	0.000	0.000	0.000	710.338	458.627	14.538
712	7.11000	0.000	0.000	0.000	709.806	457.877	15.204
713	7.12000	0.000	0.000	0.000	709.365	457.201	15.640
714	7.13000	0.000	0.000	0.000	708.782	456.545	16.188
715	7.14000	0.000	0.000	0.000	708.318	455.976	16.650
716	7.15000	0.000	0.000	0.000	707.777	455.454	17.079
717	7.16000	0.000	0.000	0.000	707.177	454.937	17.512
718	7.17000	0.000	0.000	0.000	706.536	454.352	18.017
719	7.18000	0.000	0.000	0.000	705.938	453.823	18.515
720	7.19000	0.000	0.000	0.000	705.269	453.157	19.070
721	7.20000	0.000	0.000	0.000	704.701	452.568	19.529
722	7.21000	0.000	0.000	0.000	704.040	452.092	20.031
723	7.22000	0.000	0.000	0.000	703.436	451.606	20.484
724	7.23000	0.000	0.000	0.000	702.791	451.196	20.897
725	7.24000	0.000	0.000	0.000	702.233	450.885	21.244
726	7.25000	0.000	0.000	0.000	701.771	450.643	21.475
727	7.26000	0.000	0.000	0.000	701.150	450.384	21.899
728	7.27000	0.000	0.000	0.000	700.673	450.201	22.127
729	7.28000	0.000	0.000	0.000	700.204	450.066	22.487
730	7.29000	0.000	0.000	0.000	699.873	449.959	22.662
731	7.30000	0.000	0.000	0.000	699.476	449.852	22.895
732	7.31000	0.000	0.000	0.000	699.153	449.804	23.036
733	7.32000	0.000	0.000	0.000	698.735	449.781	23.308
734	7.33000	0.000	0.000	0.000	698.335	449.818	23.460
735	7.34000	0.000	0.000	0.000	697.960	449.854	23.655
736	7.35000	0.000	0.000	0.000	697.625	449.882	23.844
737	7.36000	0.000	0.000	0.000	697.428	449.951	23.902
738	7.37000	0.000	0.000	0.000	697.305	450.105	23.927
739	7.38000	0.000	0.000	0.000	697.123	450.254	24.050
740	7.39000	0.000	0.000	0.000	696.954	450.411	24.135
741	7.40000	0.000	0.000	0.000	696.776	450.587	24.190
742	7.41000	0.000	0.000	0.000	696.721	450.839	24.148
743	7.42000	0.000	0.000	0.000	696.610	451.059	24.114
744	7.43000	0.000	0.000	0.000	696.416	451.249	24.146
745	7.44000	0.000	0.000	0.000	696.353	451.405	24.073
746	7.45000	0.000	0.000	0.000	696.208	451.599	24.093
747	7.46000	0.000	0.000	0.000	696.068	451.850	24.108
748	7.47000	0.000	0.000	0.000	695.959	452.100	24.036
749	7.48000	0.000	0.000	0.000	695.819	452.303	24.005
750	7.49000	0.000	0.000	0.000	695.722	452.486	23.962
751	7.50000	0.000	0.000	0.000	695.648	452.683	23.870
752	7.51000	0.000	0.000	0.000	695.538	452.939	23.873
753	7.52000	0.000	0.000	0.000	695.406	453.173	23.847
754	7.53000	0.000	0.000	0.000	695.404	453.550	23.668
755	7.54000	0.000	0.000	0.000	695.356	453.904	23.488
756	7.55000	0.000	0.000	0.000	695.336	454.292	23.387
757	7.56000	0.000	0.000	0.000	695.320	454.623	23.280
758	7.57000	0.000	0.000	0.000	695.351	454.911	23.144
759	7.58000	0.000	0.000	0.000	695.329	455.167	23.061
760	7.59000	0.000	0.000	0.000	695.401	455.356	22.978
761	7.60000	0.000	0.000	0.000	695.373	455.454	22.982
762	7.61000	0.000	0.000	0.000	695.349	455.518	22.966
763	7.62000	0.000	0.000	0.000	695.395	455.639	22.986
764	7.63000	0.000	0.000	0.000	695.385	455.806	22.947
765	7.64000	0.000	0.000	0.000	695.398	455.975	22.881
766	7.65000	0.000	0.000	0.000	695.355	456.177	22.850
767	7.66000	0.000	0.000	0.000	695.300	456.339	22.867
768	7.67000	0.000	0.000	0.000	695.315	456.522	22.780
769	7.68000	0.000	0.000	0.000	695.385	456.646	22.670
770	7.69000	0.000	0.000	0.000	695.358	456.734	22.668
771	7.70000	0.000	0.000	0.000	695.379	456.788	22.616
772	7.71000	0.000	0.000	0.000	695.445	456.899	22.556
773	7.72000	0.000	0.000	0.000	695.438	456.872	22.553
774	7.73000	0.000	0.000	0.000	695.399	456.919	22.598
775	7.74000	0.000	0.000	0.000	695.458	456.913	22.521
776	7.75000	0.000	0.000	0.000	695.379	456.879	22.557
777	7.76000	0.000	0.000	0.000	695.370	456.865	22.563
778	7.77000	0.000	0.000	0.000	695.423	456.936	22.477
779	7.78000	0.000	0.000	0.000	695.361	456.955	22.489
780	7.79000	0.000	0.000	0.000	695.371	457.054	22.421
781	7.80000	0.000	0.000	0.000	695.472	457.161	22.316
782	7.81000	0.000	0.000	0.000	695.420	457.215	22.306
783	7.82000	0.000	0.000	0.000	695.464	457.225	22.328
784	7.83000	0.000	0.000	0.000	695.539	457.194	22.294
785	7.84000	0.000	0.000	0.000	695.509	457.100	22.365
786	7.85000	0.000	0.000	0.000	695.480	457.045	22.402
787	7.86000	0.000	0.000	0.000	695.485	457.061	22.353
788	7.87000	0.000	0.000	0.000	695.517	457.050	22.332
789	7.88000	0.000	0.000	0.000	695.457	456.999	22.386
790	7.89000	0.000	0.000	0.000	695.451	456.965	22.379
791	7.90000	0.000	0.000	0.000	695.456	456.849	22.422
792	7.91000	0.000	0.000	0.000	695.496	456.815	22.356
793	7.92000	0.000	0.000	0.000	695.508	456.726	22.401
794	7.93000	0.000	0.000	0.000	695.422	456.687	22.418
795	7.94000	0.000	0.000	0.000	695.382	456.622	22.392
796	7.95000	0.000	0.000	0.000	695.314	456.615	22.401
797	7.96000	0.000	0.000	0.000	695.272	456.571	22.460
798	7.97000	0.000	0.000	0.000	695.210	456.525	22.518
799	7.98000	0.000	0.000	0.000	695.238	456.502	22.547
800	7.99000	0.000	0.000	0.000	695.219	456.436	22.592
801	8.00000	0.000	0.000	0.000	695.265	456.440	22.610
802	8.01000	0.000	0.000	0.000	695.220	456.435	22.665
803	8.02000	0.000	0.000	0.000	695.178	456.456	22.678
804	8.03000	0.000	0.000	0.000	695.134	456.490	22.699
805	8.04000	0.000	0.000	0.000	695.026	456.465	22.727
806	8.05000	0.000	0.000	0.000	694.986	456.473	22.805
807	8.06000	0.000	0.000	0.000	694.943	456.365	22.837
808	8.07000	0.000	0.000	0.000	694.928	456.260	22.959
809	8.08000	0.000	0.000	0.000	694.958	456.159	23.026
810	8.09000	0.000	0.000	0.000	694.861	456.078	23.162
811	8.10000	0.000	0.000	0.000	694.753	456.043	23.284
812	8.11000	0.000	0.000	0.000	694.716	456.028	23.348
813	8.12000	0.000	0.000	0.000	694.627	455.993	23.471
814	8.13000	0.000	0.000	0.000	694.599	455.976	23.475
815	8.14000	0.000	0.000	0.000	694.490	455.872	23.641
816	8.15000	0.000	0.000	0.000	694.469	455.728	23.680
817	8.16000	0.000	0.000	0.000	694.430	455.556	23.729
818	8.17000	0.000	0.000	0.000	694.409	455.477	23.795
819	8.18000	0.000	0.000	0.000	694.420	455.387	23.766
820	8.19000	0.000	0.000	0.000	694.365	455.304	23.799
821	8.20000	0.000	0.000	0.000	694.330	455.326	23.755
822	8.21000	0.000	0.000	0.000	694.242	455.342	23.751
823	8.22000	0.000	0.000	0.000	694.243	455.364	23.735
824	8.23000	0.000	0.000	0.000	694.263	455.396	23.698
825	8.24000	0.000	0.000	0.000	694.338	455.560	23.527
826	8.25000	0.000	0.000	0.000	694.349	455.698	23.498
827	8.26000	0.000	0.000	0.000	694.335	455.780	23.478
828	8.27000	0.000	0.000	0.000	694.383	455.940	23.363
829	8.28000	0.000	0.000	0.000	694.256	455.987	23.421
830	8.29000	0.000	0.000	0.000	694.320	455.992	23.367
831	8.30000	0.000	0.000	0.000	694.312	455.971	23.368
832	8.31000	0.000	0.000	0.000	694.445	456.027	23.272
833	8.32000	0.000	0.000	0.000	694.544	456.056	23.234
834	8.33000	0.000	0.000	0.000	694.594	456.167	23.144
835	8.34000	0.000	0.000	0.000	694.619	456.356	23.048
836	8.35000	0.000	0.000	0.000	694.569	456.506	23.027
837	8.36000	0.000	0.000	0.000	694.592	456.730	22.923
838	8.37000	0.000	0.000	0.000	694.608	456.880	22.844
839	8.38000	0.000	0.000	0.000	694.691	457.045	22.688
840	8.39000	0.000	0.000	0.000	694.718	457.197	22.669
841	8.40000	0.000	0.000	0.000	694.754	457.370	22.576
842	8.41000	0.000	0.000	0.000	694.796	457.522	22.514
843	8.42000	0.000	0.000	0.000	694.880	457.680	22.426
844	8.43000	0.000	0.000	0.000	694.872	457.815	22.396
845	8.44000	0.000	0.000	0.000	694.964	457.998	22.310
846	8.45000	0.000	0.000	0.000	695.035	458.161	22.240
847	8.46000	0.000	0.000	0.000	695.109	458.319	22.240
848	8.47000	0.000	0.000	0.000	695.234	458.441	22.159
849	8.48000	0.000	0.000	0.000	695.473	458.578	22.015
850	8.49000	0.000	0.000	0.000	695.579	458.680	22.023
851	8.50000	0.000	0.000	0.000	695.675	458.774	21.967
852	8.51000	0.000	0.000	0.000	695.775	458.888	21.939
853	8.52000	0.000	0.000	0.000	695.891	459.082	21.802
854	8.53000	0.000	0.000	0.000	695.978	459.286	21.656
855	8.54000	0.000	0.000	0.000	696.003	459.497	21.543
856	8.55000	0.000	0.000	0.000	696.103	459.829	21.362
857	8.56000	0.000	0.000	0.000	696.315	460.144	21.156
858	8.57000	0.000	0.000	0.000	696.563	460.551	20.895
859	8.58000	0.000	0.000	0.000	696.832	460.950	20.627
860	8.59000	0.000	0.000	0.000	697.185	461.430	20.338
861	8.60000	0.000	0.000	0.000	697.452	461.939	20.096
862	8.61000	0.000	0.000	0.000	697.692	462.539	19.854
863	8.62000	0.000	0.000	0.000	697.961	463.202	19.478
864	8.63000	0.000	0.000	0.000	698.249	463.896	19.092
865	8.64000	0.000	0.000	0.000	698.529	464.590	18.690
866	8.65000	0.000	0.000	0.000	698.836	465.326	18.271
867	8.66000	0.000	0.000	0.000	699.069	465.977	17.885
868	8.67000	0.000	0.000	0.000	699.329	466.565	17.561
869	8.68000	0.000	0.000	0.000	699.522	467.054	17.305
870	8.69000	0.000	0.000	0.000	699.786	467.553	16.938
871	8.70000	0.000	0.000	0.000	699.970	468.042	16.667
872	8.71000	0.000	0.000	0.000	700.109	468.396	16.469
873	8.72000	0.000	0.000	0.000	700.140	468.621	16.379
874	8.73000	0.000	0.000	0.000	700.319	468.837	16.196
875	8.74000	0.000	0.000	0.000	700.289	468.872	16.248
876	8.75000	0.000	0.000	0.000	700.398	468.871	16.233
877	8.76000	0.000	0.000	0.000	700.479	468.788	16.269
878	8.77000	0.000	0.000	0.000	700.633	468.700	16.259
879	8.78000	0.000	0.000	0.000	700.806	468.615	16.251
880	8.79000	0.000	0.000	0.000	700.989	468.634	16.251
881	8.80000	0.000	0.000	0.000	701.291	468.863	15.990
882	8.81000	0.000	0.000	0.000	701.626	469.265	15.664
883	8.82000	0.000	0.000	0.000	701.887	469.673	15.385
884	8.83000	0.000	0.000	0.000	702.179	470.056	15.105
885	8.84000	0.000	0.000	0.000	702.441	470.437	14.839
886	8.85000	0.000	0.000	0.000	702.733	470.730	14.618
887	8.86000	0.000	0.000	0.000	703.117	471.036	14.363
888	8.87000	0.000	0.000	0.000	703.523	471.273	14.050
889	8.88000	0.000	0.000	0.000	703.816	471.514	13.856
890	8.89000	0.000	0.000	0.000	704.074	471.698	13.684
891	8.90000	0.000	0.000	0.000	704.383	471.981	13.413
892	8.91000	0.000	0.000	0.000	704.758	472.335	13.116
893	8.92000	0.000	0.000	0.000	705.187	472.657	12.710
894	8.93000	0.000	0.000	0.000	705.474	472.937	12.466
895	8.94000	0.000	0.000	0.000	705.902	473.315	12.036
896	8.95000	0.000	0.000	0.000	706.391	473.732	11.545
897	8.96000	0.000	0.000	0.000	706.746	474.176	11.187
898	8.97000	0.000	0.000	0.000	707.077	474.540	10.850
899	8.98000	0.000	0.000	0.000	707.545	474.997	10.427
900	8.99000	0.000	0.000	0.000	707.837	475.251	10.167
901	9.00000	0.000	0.000	0.000	708.228	475.490	9.899
902	9.01000	0.000	0.000	0.000	708.621	475.690	9.636
903	9.02000	0.000	0.000	0.000	709.095	475.938	9.316
904	9.03000	0.000	0.000	0.000	709.450	476.160	9.036
905	9.04000	0.000	0.000	0.000	709.793	476.432	8.818
906	9.05000	0.000	0.000	0.000	710.218	476.780	8.429
907	9.06000	0.000	0.000	0.000	710.637	477.035	8.083
908	9.07000	0.000	0.000	0.000	711.008	477.232	7.847
909	9.08000	0.000	0.000	0.000	711.421	477.434	7.585
910	9.09000	0.000	0.000	0.000	711.856	477.639	7.222
911	9.10000	0.000	0.000	0.000	712.269	477.906	6.914
912	9.11000	0.000	0.000	0.000	712.558	478.174	6.662
913	9.12000	0.000	0.000	0.000	712.802	478.436	6.465
914	9.13000	0.000	0.000	0.000	713.244	478.826	5.999
915	9.14000	0.000	0.000	0.000	713.454	478.927	5.876
916	9.15000	0.000	0.000	0.000	713.764	479.053	5.637
917	9.16000	0.000	0.000	0.000	714.010	479.144	5.464
918	9.17000	0.000	0.000	0.000	714.358	479.250	5.168
919	9.18000	0.000	0.000	0.000	714.560	479.284	5.002
920	9.19000	0.000	0.000	0.000	714.718	479.354	4.857
921	9.20000	0.000	0.000	0.000	714.731	479.435	4.776
922	9.21000	0.000	0.000	0.000	714.694	479.445	4.751
923	9.22000	0.000	0.000	0.000	714.706	479.485	4.778
924	9.23000	0.000	0.000	0.000	714.734	479.369	4.867
925	9.24000	0.000	0.000	0.000	714.805	479.099	5.038
926	9.25000	0.000	0.000	0.000	714.782	478.674	5.359
927	9.26000	0.000	0.000	0.000	714.688	478.110	5.811
928	9.27000	0.000	0.000	0.000	714.469	477.482	6.292
929	9.28000	0.000	0.000	0.000	714.262	476.855	6.759
930	9.29000	0.000	0.000	0.000	714.085	476.297	7.167
931	9.30000	0.000	0.000	0.000	713.888	475.739	7.500
932	9.31000	0.000	0.000	0.000	713.819	475.246	7.774
933	9.32000	0.000	0.000	0.000	713.689	474.747	8.072
934	9.33000	0.000	0.000	0.000	713.524	474.141	8.344
935	9.34000	0.000	0.000	0.000	713.347	473.442	8.689
936	9.35000	0.000	0.000	0.000	713.142	472.637	9.024
937	9.36000	0.000	0.000	0.000	712.667	471.581	9.516
938	9.37000	0.000	0.000	0.000	712.169	470.395	9.981
939	9.38000	0.000	0.000	0.000	711.481	468.941	10.595
940	9.39000	0.000	0.000	0.000	710.543	467.148	11.500
941	9.40000	0.000	0.000	0.000	709.571	465.056	12.343
942	9.41000	0.000	0.000	0.000	708.281	462.360	13.598
943	9.42000	0.000	0.000	0.000	706.613	459.239	14.996
944	9.43000	0.000	0.000	0.000	704.401	455.482	16.851
945	9.44000	0.000	0.000	0.000	701.852	451.257	18.950
946	9.45000	0.000	0.000	0.000	698.663	446.211	21.645
947	9.46000	0.000	0.000	0.000	694.994	440.470	24.809
948	9.47000	0.000	0.000	0.000	690.968	434.014	28.424
949	9.48000	0.000	0.000	0.000	686.189	426.707	32.826
950	9.49000	0.000	0.000	0.000	680.833	418.563	37.986
951	9.50000	0.000	0.000	0.000	674.885	409.594	43.897
952	9.51000	0.000	0.000	0.000	668.296	399.708	50.711
953	9.52000	0.000	0.000	0.000	661.441	389.138	58.281
954	9.53000	0.000	0.000	0.000	654.289	378.024	66.616
955	9.54000	0.000	0.000	0.000	646.821	366.404	75.829
956	9.55000	0.000	0.000	0.000	639.097	354.472	85.860
957	9.56000	0.000	0.000	0.000	630.901	342.206	96.853
958	9.57000	0.000	0.000	0.000	622.410	329.655	108.786
959	9.58000	0.000	0.000	0.000	613.596	316.740	121.783
960	9.59000	0.000	0.000	0.000	604.460	303.447	135.971
961	9.60000	0.000	0.000	0.000	595.167	289.778	151.362
962	9.61000	0.000	0.000	0.000	585.790	275.824	167.891
963	9.62000	0.000	0.000	0.000	576.258	261.739	185.876
964	9.63000	0.000	0.000	0.000	566.736	247.720	205.071
965	9.64000	0.000	0.000	0.000	557.222	233.935	225.382
966	9.65000	0.000	0.000	0.000	547.726	220.527	246.969
967	9.66000	0.000	0.000	0.000	538.549	207.655	269.468
968	9.67000	0.000	0.000	0.000	529.704	195.342	292.985
969	9.68000	0.000	0.000	0.000	521.385	183.687	317.239
970	9.69000	0.000	0.000	0.000	513.673	172.766	342.043
971	9.70000	0.000	0.000	0.000	506.659	162.552	367.251
972	9.71000	0.000	0.000	0.000	500.333	153.198	392.620
973	9.72000	0.000	0.000	0.000	494.650	144.650	417.980
974	9.73000	0.000	0.000	0.000	489.621	137.102	443.322
975	9.74000	0.000	0.000	0.000	485.174	130.403	468.369
976	9.75000	0.000	0.000	0.000	481.346	124.632	493.045
977	9.76000	0.000	0.000	0.000	477.935	119.672	517.244
978	9.77000	0.000	0.000	0.000	475.058	115.595	540.820
979	9.78000	0.000	0.000	0.000	472.720	112.287	563.669
980	9.79000	0.000	0.000	0.000	470.730	109.590	585.718
981	9.80000	0.000	0.000	0.000	469.198	107.497	606.795
982	9.81000	0.000	0.000	0.000	468.009	105.916	626.912
983	9.82000	0.000	0.000	0.000	467.201	104.823	645.932
984	9.83000	0.000	0.000	0.000	466.597	104.153	664.006
985	9.84000	0.000	0.000	0.000	466.239	103.773	681.031
986	9.85000	0.000	0.000	0.000	466.110	103.575	697.102
987	9.86000	0.000	0.000	0.000	466.168	103.629	712.168
988	9.87000	0.000	0.000	0.000	466.331	103.857	726.288
989	9.88000	0.000	0.000	0.000	466.579	104.322	739.464
990	9.89000	0.000	0.000	0.000	466.796	104.895	751.709
991	9.90000	0.000	0.000	0.000	467.105	105.573	762.908
992	9.91000	0.000	0.000	0.000	467.402	106.152	773.144
993	9.92000	0.000	0.000	0.000	467.692	106.660	782.421
994	9.93000	0.000	0.000	0.000	467.933	107.201	790.828
995	9.94000	0.000	0.000	0.000	468.104	107.890	798.525
996	9.95000	0.000	0.000	0.000	468.169	108.658	805.506
997	9.96000	0.000	0.000	0.000	468.210	109.495	811.871
998	9.97000	0.000	0.000	0.000	468.332	110.242	817.567
999	9.98000	0.000	0.000	0.000	468.581	110.816	822.780
1000	9.99000	0.000	0.000	0.000	469.091	111.168	827.460
1001	10.00000	0.000	0.000	0.000	469.711	111.385	831.714
1002	10.01000	0.000	0.000	0.000	470.298	111.593	835.597
1003	10.02000	0.000	0.000	0.000	470.822	111.871	839.036
1004	10.03000	0.000	0.000	0.000	471.233	112.154	842.053
1005	10.04000	0.000	0.000	0.000	471.632	112.370	844.617
1006	10.05000	0.000	0.000	0.000	471.993	112.529	846.769
1007	10.06000	0.000	0.000	0.000	472.306	112.709	848.545
1008	10.07000	0.000	0.000	0.000	472.620	112.854	850.070
1009	10.08000	0.000	0.000	0.000	472.968	112.933	851.223
1010	10.09000	0.000	0.000	0.000	473.358	112.804	852.178
1011	10.10000	0.000	0.000	0.000	473.770	112.580	852.898
1012	10.11000	0.000	0.000	0.000	474.156	112.245	853.426
1013	10.12000	0.000	0.000	0.000	474.429	112.029	853.733
1014	10.13000	0.000	0.000	0.000	474.612	111.955	853.930
1015	10.14000	0.000	0.000	0.000	474.613	112.022	854.002
1016	10.15000	0.000	0.000	0.000	474.625	112.090	853.914
1017	10.16000	0.000	0.000	0.000	474.698	112.051	853.653
1018	10.17000	0.000	0.000	0.000	474.916	111.814	853.206
1019	10.18000	0.000	0.000	0.000	475.131	111.547	852.635
1020	10.19000	0.000	0.000	0.000	475.366	111.321	852.024
1021	10.20000	0.000	0.000	0.000	475.622	111.153	851.359
1022	10.21000	0.000	0.000	0.000	475.779	111.037	850.716
1023	10.22000	0.000	0.000	0.000	475.948	110.900	850.014
1024	10.23000	0.000	0.000	0.000	476.230	110.665	849.156
1025	10.24000	0.000	0.000	0.000	476.415	110.375	848.176
1026	10.25000	0.000	0.000	0.000	476.559	110.153	847.112
1027	10.26000	0.000	0.000	0.000	476.635	110.007	845.993
1028	10.27000	0.000	0.000	0.000	476.620	109.904	844.874
1029	10.28000	0.000	0.000	0.000	476.639	109.816	843.760
1030	10.29000	0.000	0.000	0.000	476.613	109.661	842.725
1031	10.30000	0.000	0.000	0.000	476.731	109.397	841.617
1032	10.31000	0.000	0.000	0.000	476.774	109.108	840.487
1033	10.32000	0.000	0.000	0.000	476.832	108.855	839.355
1034	10.33000	0.000	0.000	0.000	476.840	108.643	838.292
1035	10.34000	0.000	0.000	0.000	476.850	108.491	837.311
1036	10.35000	0.000	0.000	0.000	476.898	108.413	836.403
1037	10.36000	0.000	0.000	0.000	476.912	108.326	835.560
1038	10.37000	0.000	0.000	0.000	476.986	108.206	834.768
1039	10.38000	0.000	0.000	0.000	477.079	108.050	833.937
1040	10.39000	0.000	0.000	0.000	477.210	107.959	833.100
1041	10.40000	0.000	0.000	0.000	477.223	107.928	832.379
1042	10.41000	0.000	0.000	0.000	477.331	107.917	831.610
1043	10.42000	0.000	0.000	0.000	477.413	107.900	830.906
1044	10.43000	0.000	0.000	0.000	477.499	107.773	830.122
1045	10.44000	0.000	0.000	0.000	477.672	107.633	829.313
1046	10.45000	0.000	0.000	0.000	477.825	107.440	828.442
1047	10.46000	0.000	0.000	0.000	477.943	107.259	827.574
1048	10.47000	0.000	0.000	0.000	478.004	107.117	826.774
1049	10.48000	0.000	0.000	0.000	478.002	107.016	825.978
1050	10.49000	0.000	0.000	0.000	477.976	106.968	825.241
1051	10.50000	0.000	0.000	0.000	477.894	106.894	824.507
1052	10.51000	0.000	0.000	0.000	477.834	106.781	823.775
1053	10.52000	0.000	0.000	0.000	477.742	106.659	823.085
1054	10.53000	0.000	0.000	0.000	477.697	106.598	822.422
1055	10.54000	0.000	0.000	0.000	477.559	106.548	821.843
1056	10.55000	0.000	0.000	0.000	477.384	106.556	821.313
1057	10.56000	0.000	0.000	0.000	477.209	106.606	820.781
1058	10.57000	0.000	0.000	0.000	477.065	106.601	820.321
1059	10.58000	0.000	0.000	0.000	476.937	106.560	819.822
1060	10.59000	0.000	0.000	0.000	476.870	106.484	819.368
1061	10.60000	0.000	0.000	0.000	476.810	106.449	818.894
1062	10.61000	0.000	0.000	0.000	476.751	106.438	818.481
1063	10.62000	0.000	0.000	0.000	476.649	106.458	818.099
1064	10.63000	0.000	0.000	0.000	476.607	106.494	817.700
1065	10.64000	0.000	0.000	0.000	476.556	106.490	817.260
1066	10.65000	0.000	0.000	0.000	476.545	106.460	816.829
1067	10.66000	0.000	0.000	0.000	476.519	106.370	816.337
1068	10.67000	0.000	0.000	0.000	476.552	106.289	815.921
1069	10.68000	0.000	0.000	0.000	476.548	106.228	815.514
1070	10.69000	0.000	0.000	0.000	476.498	106.215	815.225
1071	10.70000	0.000	0.000	0.000	476.461	106.248	814.950
1072	10.71000	0.000	0.000	0.000	476.399	106.278	814.691
1073	10.72000	0.000	0.000	0.000	476.349	106.304	814.449
1074	10.73000	0.000	0.000	0.000	476.306	106.246	814.205
1075	10.74000	0.000	0.000	0.000	476.262	106.226	814.009
1076	10.75000	0.000	0.000	0.000	476.299	106.216	813.848
1077	10.76000	0.000	0.000	0.000	476.343	106.223	813.765
1078	10.77000	0.000	0.000	0.000	476.479	106.180	813.700
1079	10.78000	0.000	0.000	0.000	476.570	106.089	813.661
1080	10.79000	0.000	0.000	0.000	476.740	106.001	813.518
1081	10.80000	0.000	0.000	0.000	476.774	105.902	813.412
1082	10.81000	0.000	0.000	0.000	476.843	105.869	813.316
1083	10.82000	0.000	0.000	0.000	476.867	105.868	813.259
1084	10.83000	0.000	0.000	0.000	476.898	105.861	813.221
1085	10.84000	0.000	0.000	0.000	477.007	105.812	813.147
1086	10.85000	0.000	0.000	0.000	477.113	105.727	813.058
1087	10.86000	0.000	0.000	0.000	477.249	105.628	812.949
1088	10.87000	0.000	0.000	0.000	477.318	105.547	812.799
1089	10.88000	0.000	0.000	0.000	477.388	105.524	812.709
1090	10.89000	0.000	0.000	0.000	477.446	105.461	812.669
1091	10.90000	0.000	0.000	0.000	477.569	105.411	812.638
1092	10.91000	0.000	0.000	0.000	477.666	105.325	812.632
1093	10.92000	0.000	0.000	0.000	477.762	105.226	812.595
1094	10.93000	0.000	0.000	0.000	477.857	105.170	812.556
1095	10.94000	0.000	0.000	0.000	477.932	105.127	812.513
1096	10.95000	0.000	0.000	0.000	478.035	105.125	812.485
1097	10.96000	0.000	0.000	0.000	478.131	105.121	812.449
1098	10.97000	0.000	0.000	0.000	478.247	105.068	812.410
1099	10.98000	0.000	0.000	0.000	478.400	104.965	812.311
1100	10.99000	0.000	0.000	0.000	478.545	104.886	812.222
1101	11.00000	0.000	0.000	0.000	478.640	104.841	812.122
1102	11.01000	0.000	0.000	0.000	478.647	104.836	812.065
1103	11.02000	0.000	0.000	0.000	478.651	104.862	811.984
1104	11.03000	0.000	0.000	0.000	478.680	104.889	811.862
1105	11.04000	0.000	0.000	0.000	478.707	104.837	811.736
1106	11.05000	0.000	0.000	0.000	478.778	104.792	811.593
1107	11.06000	0.000	0.000	0.000	478.800	104.727	811.511
1108	11.07000	0.000	0.000	0.000	478.843	104.714	811.483
1109	11.08000	0.000	0.000	0.000	478.822	104.703	811.494
1110	11.09000	0.000	0.000	0.000	478.767	104.745	811.572
1111	11.10000	0.000	0.000	0.000	478.708	104.803	811.653
1112	11.11000	0.000	0.000	0.000	478.688	104.864	811.778
1113	11.12000	0.000	0.000	0.000	478.694	104.897	811.919
1114	11.13000	0.000	0.000	0.000	478.736	104.903	812.069
1115	11.14000	0.000	0.000	0.000	478.741	104.943	812.283
1116	11.15000	0.000	0.000	0.000	478.762	104.979	812.507
1117	11.16000	0.000	0.000	0.000	478.749	105.055	812.843
1118	11.17000	0.000	0.000	0.000	478.782	105.116	813.120
1119	11.18000	0.000	0.000	0.000	478.793	105.202	813.430
1120	11.19000	0.000	0.000	0.000	478.787	105.238	813.711
1121	11.20000	0.000	0.000	0.000	478.673	105.299	813.988
1122	11.21000	0.000	0.000	0.000	478.621	105.422	814.261
1123	11.22000	0.000	0.000	0.000	478.467	105.576	814.595
1124	11.23000	0.000	0.000	0.000	478.372	105.720	814.902
1125	11.24000	0.000	0.000	0.000	478.307	105.839	815.249
1126	11.25000	0.000	0.000	0.000	478.263	105.918	815.583
1127	11.26000	0.000	0.000	0.000	478.284	105.963	815.821
1128	11.27000	0.000	0.000	0.000	478.222	106.015	816.169
1129	11.28000	0.000	0.000	0.000	478.150	106.088	816.495
1130	11.29000	0.000	0.000	0.000	478.088	106.218	816.781
1131	11.30000	0.000	0.000	0.000	478.001	106.361	817.146
1132	11.31000	0.000	0.000	0.000	477.914	106.503	817.420
1133	11.32000	0.000	0.000	0.000	477.788	106.603	817.686
1134	11.33000	0.000	0.000	0.000	477.718	106.706	817.888
1135	11.34000	0.000	0.000	0.000	477.574	106.785	818.067
1136	11.35000	0.000	0.000	0.000	477.469	106.895	818.233
1137	11.36000	0.000	0.000	0.000	477.286	107.003	818.420
1138	11.37000	0.000	0.000	0.000	477.208	107.149	818.561
1139	11.38000	0.000	0.000	0.000	477.088	107.229	818.708
1140	11.39000	0.000	0.000	0.000	476.992	107.262	818.852
1141	11.40000	0.000	0.000	0.000	476.902	107.295	818.988
1142	11.41000	0.000	0.000	0.000	476.781	107.360	819.156
1143	11.42000	0.000	0.000	0.000	476.624	107.461	819.329
1144	11.43000	0.000	0.000	0.000	476.463	107.601	819.542
1145	11.44000	0.000	0.000	0.000	476.342	107.712	819.748
1146	11.45000	0.000	0.000	0.000	476.241	107.763	819.994
1147	11.46000	0.000	0.000	0.000	476.216	107.803	820.173
1148	11.47000	0.000	0.000	0.000	476.139	107.808	820.350
1149	11.48000	0.000	0.000	0.000	476.017	107.845	820.582
1150	11.49000	0.000	0.000	0.000	475.918	107.930	820.819
1151	11.50000	0.000	0.000	0.000	475.844	107.981	821.108
1152	11.51000	0.000	0.000	0.000	475.805	108.044	821.363
1153	11.52000	0.000	0.000	0.000	475.718	108.037	821.608
1154	11.53000	0.000	0.000	0.000	475.714	108.039	821.871
1155	11.54000	0.000	0.000	0.000	475.699	108.024	822.088
1156	11.55000	0.000	0.000	0.000	475.692	108.010	822.290
1157	11.56000	0.000	0.000	0.000	475.696	108.030	822.557
1158	11.57000	0.000	0.000	0.000	475.770	108.028	822.825
1159	11.58000	0.000	0.000	0.000	475.753	108.007	823.216
1160	11.59000	0.000	0.000	0.000	475.816	107.990	823.520
1161	11.60000	0.000	0.000	0.000	475.933	107.941	823.835
1162	11.61000	0.000	0.000	0.000	475.952	107.927	824.160
1163	11.62000	0.000	0.000	0.000	475.959	107.950	824.451
1164	11.63000	0.000	0.000	0.000	476.013	107.966	824.762
1165	11.64000	0.000	0.000	0.000	476.016	107.930	825.059
1166	11.65000	0.000	0.000	0.000	476.082	107.912	825.347
1167	11.66000	0.000	0.000	0.000	476.132	107.859	825.650
1168	11.67000	0.000	0.000	0.000	476.153	107.840	825.919
1169	11.68000	0.000	0.000	0.000	476.101	107.867	826.189
1170	11.69000	0.000	0.000	0.000	476.112	107.951	826.481
1171	11.70000	0.000	0.000	0.000	476.029	108.011	826.783
1172	11.71000	0.000	0.000	0.000	475.987	108.024	827.065
1173	11.72000	0.000	0.000	0.000	476.038	108.043	827.317
1174	11.73000	0.000	0.000	0.000	476.092	108.012	827.590
1175	11.74000	0.000	0.000	0.000	476.136	107.977	827.831
1176	11.75000	0.000	0.000	0.000	476.148	108.006	828.161
1177	11.76000	0.000	0.000	0.000	476.213	108.047	828.449
1178	11.77000	0.000	0.000	0.000	476.193	108.108	828.744
1179	11.78000	0.000	0.000	0.000	476.197	108.151	828.980
1180	11.79000	0.000	0.000	0.000	476.244	108.140	829.215
1181	11.80000	0.000	0.000	0.000	476.272	108.163	829.465
1182	11.81000	0.000	0.000	0.000	476.315	108.159	829.673
1183	11.82000	0.000	0.000	0.000	476.353	108.157	829.921
1184	11.83000	0.000	0.000	0.000	476.380	108.209	830.213
1185	11.84000	0.000	0.000	0.000	476.394	108.269	830.518
1186	11.85000	0.000	0.000	0.000	476.469	108.282	830.838
1187	11.86000	0.000	0.000	0.000	476.529	108.234	831.172
1188	11.87000	0.000	0.000	0.000	476.593	108.217	831.474
1189	11.88000	0.000	0.000	0.000	476.653	108.208	831.856
1190	11.89000	0.000	0.000	0.000	476.660	108.262	832.277
1191	11.90000	0.000	0.000	0.000	476.743	108.316	832.660
1192	11.91000	0.000	0.000	0.000	476.798	108.354	833.087
1193	11.92000	0.000	0.000	0.000	476.859	108.373	833.495
1194	11.93000	0.000	0.000	0.000	476.889	108.388	833.836
1195	11.94000	0.000	0.000	0.000	476.928	108.388	834.173
1196	11.95000	0.000	0.000	0.000	476.902	108.458	834.563
1197	11.96000	0.000	0.000	0.000	476.912	108.499	834.937
1198	11.97000	0.000	0.000	0.000	476.989	108.537	835.332
1199	11.98000	0.000	0.000	0.000	477.068	108.505	835.711
1200	11.99000	0.000	0.000	0.000	477.145	108.445	836.064
1201	12.00000	0.000	0.000	0.000	477.166	108.430	836.445
1202	12.01000	0.000	0.000	0.000	477.185	108.445	836.728
1203	12.02000	0.000	0.000	0.000	477.096	108.511	837.098
1204	12.03000	0.000	0.000	0.000	476.991	108.563	837.439
1205	12.04000	0.000	0.000	0.000	476.926	108.545	837.693
1206	12.05000	0.000	0.000	0.000	477.012	108.467	837.872
1207	12.06000	0.000	0.000	0.000	477.069	108.371	838.069
1208	12.07000	0.000	0.000	0.000	477.125	108.246	838.234
1209	12.08000	0.000	0.000	0.000	477.070	108.146	838.426
1210	12.09000	0.000	0.000	0.000	477.071	108.058	838.554
1211	12.10000	0.000	0.000	0.000	477.011	107.942	838.596
1212	12.11000	0.000	0.000	0.000	476.891	107.851	838.572
1213	12.12000	0.000	0.000	0.000	476.763	107.733	838.383
1214	12.13000	0.000	0.000	0.000	476.626	107.619	838.169
1215	12.14000	0.000	0.000	0.000	476.481	107.498	837.980
1216	12.15000	0.000	0.000	0.000	476.352	107.378	837.783
1217	12.16000	0.000	0.000	0.000	476.214	107.213	837.565
1218	12.17000	0.000	0.000	0.000	476.156	107.017	837.244
1219	12.18000	0.000	0.000	0.000	476.005	106.765	836.875
1220	12.19000	0.000	0.000	0.000	475.859	106.525	836.365
1221	12.20000	0.000	0.000	0.000	475.594	106.281	835.768
1222	12.21000	0.000	0.000	0.000	475.301	106.070	835.137
1223	12.22000	0.000	0.000	0.000	474.995	105.918	834.434
1224	12.23000	0.000	0.000	0.000	474.700	105.712	833.613
1225	12.24000	0.000	0.000	0.000	474.418	105.463	832.681
1226	12.25000	0.000	0.000	0.000	474.192	105.127	831.561
1227	12.26000	0.000	0.000	0.000	473.984	104.697	830.243
1228	12.27000	0.000	0.000	0.000	473.767	104.245	828.741
1229	12.28000	0.000	0.000	0.000	473.489	103.791	827.071
1230	12.29000	0.000	0.000	0.000	473.190	103.345	825.290
1231	12.30000	0.000	0.000	0.000	472.826	102.916	823.286
1232	12.31000	0.000	0.000	0.000	472.489	102.451	821.059
1233	12.32000	0.000	0.000	0.000	472.179	101.919	818.650
1234	12.33000	0.000	0.000	0.000	472.002	101.306	815.983
1235	12.34000	0.000	0.000	0.000	471.800	100.567	813.053
1236	12.35000	0.000	0.000	0.000	471.741	99.746	809.856
1237	12.36000	0.000	0.000	0.000	471.752	98.906	806.369
1238	12.37000	0.000	0.000	0.000	471.708	98.063	802.639
1239	12.38000	0.000	0.000	0.000	471.741	97.240	798.581
1240	12.39000	0.000	0.000	0.000	471.713	96.435	794.236
1241	12.40000	0.000	0.000	0.000	471.839	95.653	789.468
1242	12.41000	0.000	0.000	0.000	471.935	94.729	784.324
1243	12.42000	0.000	0.000	0.000	472.144	93.631	778.664
1244	12.43000	0.000	0.000	0.000	472.428	92.540	772.413
1245	12.44000	0.000	0.000	0.000	472.751	91.417	765.584
1246	12.45000	0.000	0.000	0.000	472.977	90.403	758.258
1247	12.46000	0.000	0.000	0.000	473.168	89.536	750.446
1248	12.47000	0.000	0.000	0.000	473.311	88.875	742.202
1249	12.48000	0.000	0.000	0.000	473.511	88.255	733.428
1250	12.49000	0.000	0.000	0.000	473.772	87.563	724.043
1251	12.50000	0.000	0.000	0.000	474.165	86.940	714.022
1252	12.51000	0.000	0.000	0.000	474.566	86.420	703.363
1253	12.52000	0.000	0.000	0.000	475.063	86.082	692.158
1254	12.53000	0.000	0.000	0.000	475.688	86.013	680.466
1255	12.54000	0.000	0.000	0.000	476.326	86.084	668.302
1256	12.55000	0.000	0.000	0.000	477.269	86.289	655.463
1257	12.56000	0.000	0.000	0.000	478.334	86.643	642.011
1258	12.57000	0.000	0.000	0.000	479.531	87.256	627.903
1259	12.58000	0.000	0.000	0.000	480.930	88.183	613.064
1260	12.59000	0.000	0.000	0.000	482.596	89.437	597.517
1261	12.60000	0.000	0.000	0.000	484.330	91.046	581.426
1262	12.61000	0.000	0.000	0.000	486.187	93.153	564.746
1263	12.62000	0.000	0.000	0.000	488.104	95.752	547.574
1264	12.63000	0.000	0.000	0.000	490.248	98.826	529.885
1265	12.64000	0.000	0.000	0.000	492.631	102.278	511.810
1266	12.65000	0.000	0.000	0.000	495.570	106.192	493.366
1267	12.66000	0.000	0.000	0.000	498.905	110.404	474.642
1268	12.67000	0.000	0.000	0.000	502.861	114.959	455.535
1269	12.68000	0.000	0.000	0.000	507.101	119.844	436.365
1270	12.69000	0.000	0.000	0.000	511.752	125.146	417.017
1271	12.70000	0.000	0.000	0.000	516.615	130.914	397.761
1272	12.71000	0.000	0.000	0.000	521.583	137.221	378.733
1273	12.72000	0.000	0.000	0.000	526.730	144.112	359.952
1274	12.73000	0.000	0.000	0.000	531.985	151.364	341.613
1275	12.74000	0.000	0.000	0.000	537.787	158.946	323.406
1276	12.75000	0.000	0.000	0.000	544.189	166.641	305.299
1277	12.76000	0.000	0.000	0.000	551.172	174.489	287.560
1278	12.77000	0.000	0.000	0.000	558.649	182.571	270.072
1279	12.78000	0.000	0.000	0.000	566.246	191.079	253.092
1280	12.79000	0.000	0.000	0.000	573.801	199.858	236.750
1281	12.80000	0.000	0.000	0.000	581.140	209.076	220.979
1282	12.81000	0.000	0.000	0.000	588.372	218.665	205.657
1283	12.82000	0.000	0.000	0.000	595.676	228.565	190.360
1284	12.83000	0.000	0.000	0.000	603.065	238.797	175.533
1285	12.84000	0.000	0.000	0.000	610.673	249.172	160.966
1286	12.85000	0.000	0.000	0.000	618.262	259.712	147.107
1287	12.86000	0.000	0.000	0.000	625.744	270.210	134.175
1288	12.87000	0.000	0.000	0.000	633.186	280.634	122.239
1289	12.88000	0.000	0.000	0.000	640.445	290.630	111.350
1290	12.89000	0.000	0.000	0.000	647.719	300.295	101.224
1291	12.90000	0.000	0.000	0.000	654.836	309.549	91.964
1292	12.91000	0.000	0.000	0.000	661.812	318.575	83.380
1293	12.92000	0.000	0.000	0.000	668.676	327.377	75.379
1294	12.93000	0.000	0.000	0.000	675.229	335.994	68.038
1295	12.94000	0.000	0.000	0.000	681.435	344.315	61.282
1296	12.95000	0.000	0.000	0.000	687.260	352.340	55.034
1297	12.96000	0.000	0.000	0.000	692.534	359.989	49.362
1298	12.97000	0.000	0.000	0.000	697.276	367.265	44.222
1299	12.98000	0.000	0.000	0.000	701.707	374.121	39.491
1300	12.99000	0.000	0.000	0.000	705.659	380.526	35.368
1301	13.00000	0.000	0.000	0.000	709.401	386.406	31.642
1302	13.01000	0.000	0.000	0.000	712.810	391.773	28.518
1303	13.02000	0.000	0.000	0.000	715.974	396.538	25.927
1304	13.03000	0.000	0.000	0.000	718.881	400.686	23.812
1305	13.04000	0.000	0.000	0.000	721.791	404.426	21.757
1306	13.05000	0.000	0.000	0.000	724.178	407.693	20.157
1307	13.06000	0.000	0.000	0.000	726.102	410.667	18.784
1308	13.07000	0.000	0.000	0.000	727.574	413.413	17.694
1309	13.08000	0.000	0.000	0.000	728.789	416.087	16.620
1310	13.09000	0.000	0.000	0.000	729.690	418.571	15.800
1311	13.10000	0.000	0.000	0.000	730.405	420.837	15.062
1312	13.11000	0.000	0.000	0.000	731.117	422.914	14.416
1313	13.12000	0.000	0.000	0.000	731.671	424.672	14.067
1314	13.13000	0.000	0.000	0.000	732.086	426.062	13.923
1315	13.14000	0.000	0.000	0.000	732.554	427.190	13.917
1316	13.15000	0.000	0.000	0.000	733.010	428.049	14.026
1317	13.16000	0.000	0.000	0.000	733.250	428.607	14.443
1318	13.17000	0.000	0.000	0.000	733.694	429.108	14.727
1319	13.18000	0.000	0.000	0.000	734.011	429.328	15.292
1320	13.19000	0.000	0.000	0.000	734.496	429.488	15.721
1321	13.20000	0.000	0.000	0.000	734.940	429.503	16.258
1322	13.21000	0.000	0.000	0.000	735.428	429.522	16.669
1323	13.22000	0.000	0.000	0.000	735.813	429.570	17.051
1324	13.23000	0.000	0.000	0.000	735.979	429.636	17.465
1325	13.24000	0.000	0.000	0.000	736.084	429.799	17.750
1326	13.25000	0.000	0.000	0.000	736.159	430.022	17.928
1327	13.26000	0.000	0.000	0.000	736.222	430.207	18.080
1328	13.27000	0.000	0.000	0.000	736.346	430.409	18.115
1329	13.28000	0.000	0.000	0.000	736.438	430.622	18.170
1330	13.29000	0.000	0.000	0.000	736.507	430.781	18.131
1331	13.30000	0.000	0.000	0.000	736.624	430.983	18.077
1332	13.31000	0.000	0.000	0.000	736.528	431.089	18.070
1333	13.32000	0.000	0.000	0.000	736.477	431.149	18.062
1334	13.33000	0.000	0.000	0.000	736.327	431.237	18.041
1335	13.34000	0.000	0.000	0.000	735.927	431.264	18.203
1336	13.35000	0.000	0.000	0.000	735.516	431.265	18.245
1337	13.36000	0.000	0.000	0.000	735.146	431.269	18.335
1338	13.37000	0.000	0.000	0.000	734.907	431.183	18.371
1339	13.38000	0.000	0.000	0.000	734.544	430.996	18.541
1340	13.39000	0.000	0.000	0.000	734.166	430.706	18.803
1341	13.40000	0.000	0.000	0.000	733.912	430.377	18.972
1342	13.41000	0.000	0.000	0.000	733.610	430.017	19.235
1343	13.42000	0.000	0.000	0.000	733.177	429.607	19.563
1344	13.43000	0.000	0.000	0.000	732.763	429.212	19.973
1345	13.44000	0.000	0.000	0.000	732.349	428.804	20.303
1346	13.45000	0.000	0.000	0.000	731.876	428.428	20.622
1347	13.46000	0.000	0.000	0.000	731.340	428.047	20.993
1348	13.47000	0.000	0.000	0.000	730.752	427.738	21.337
1349	13.48000	0.000	0.000	0.000	730.243	427.397	21.620
1350	13.49000	0.000	0.000	0.000	729.645	426.972	21.975
1351	13.50000	0.000	0.000	0.000	729.123	426.567	22.317
1352	13.51000	0.000	0.000	0.000	728.743	426.137	22.546
1353	13.52000	0.000	0.000	0.000	728.323	425.614	22.859
1354	13.53000	0.000	0.000	0.000	727.984	425.022	23.187
1355	13.54000	0.000	0.000	0.000	727.559	424.385	23.671
1356	13.55000	0.000	0.000	0.000	727.254	423.797	23.959
1357	13.56000	0.000	0.000	0.000	726.895	423.255	24.260
1358	13.57000	0.000	0.000	0.000	726.436	422.780	24.617
1359	13.58000	0.000	0.000	0.000	725.923	422.389	24.881
1360	13.59000	0.000	0.000	0.000	725.450	422.103	25.071
1361	13.60000	0.000	0.000	0.000	725.056	421.875	25.214
1362	13.61000	0.000	0.000	0.000	724.598	421.704	25.436
1363	13.62000	0.000	0.000	0.000	724.210	421.566	25.609
1364	13.63000	0.000	0.000	0.000	723.888	421.434	25.730
1365	13.64000	0.000	0.000	0.000	723.624	421.358	25.803
1366	13.65000	0.000	0.000	0.000	723.379	421.372	25.820
1367	13.66000	0.000	0.000	0.000	723.018	421.376	25.927
1368	13.67000	0.000	0.000	0.000	722.651	421.455	26.098
1369	13.68000	0.000	0.000	0.000	722.352	421.604	26.143
1370	13.69000	0.000	0.000	0.000	722.196	421.830	26.097
1371	13.70000	0.000	0.000	0.000	722.041	422.108	26.070
1372	13.71000	0.000	0.000	0.000	721.902	422.316	26.043
1373	13.72000	0.000	0.000	0.000	721.845	422.532	26.039
1374	13.73000	0.000	0.000	0.000	721.784	422.704	26.019
1375	13.74000	0.000	0.000	0.000	721.683	422.777	26.077
1376	13.75000	0.000	0.000	0.000	721.775	422.919	26.028
1377	13.76000	0.000	0.000	0.000	721.846	423.047	25.997
1378	13.77000	0.000	0.000	0.000	721.913	423.186	25.902
1379	13.78000	0.000	0.000	0.000	721.914	423.365	25.858
1380	13.79000	0.000	0.000	0.000	721.929	423.543	25.846
1381	13.80000	0.000	0.000	0.000	721.985	423.803	25.770
1382	13.81000	0.000	0.000	0.000	722.035	424.112	25.698
1383	13.82000	0.000	0.000	0.000	722.149	424.479	25.549
1384	13.83000	0.000	0.000	0.000	722.205	424.854	25.475
1385	13.84000	0.000	0.000	0.000	722.456	425.373	25.199
1386	13.85000	0.000	0.000	0.000	722.520	425.824	25.074
1387	13.86000	0.000	0.000	0.000	722.649	426.307	24.885
1388	13.87000	0.000	0.000	0.000	722.717	426.829	24.690
1389	13.88000	0.000	0.000	0.000	722.823	427.367	24.479
1390	13.89000	0.000	0.000	0.000	722.881	427.857	24.306
1391	13.90000	0.000	0.000	0.000	722.891	428.373	24.105
1392	13.91000	0.000	0.000	0.000	723.041	428.980	23.895
1393	13.92000	0.000	0.000	0.000	723.091	429.507	23.674
1394	13.93000	0.000	0.000	0.000	723.208	430.105	23.427
1395	13.94000	0.000	0.000	0.000	723.247	430.618	23.240
1396	13.95000	0.000	0.000	0.000	723.306	431.211	23.060
1397	13.96000	0.000	0.000	0.000	723.342	431.826	22.823
1398	13.97000	0.000	0.000	0.000	723.401	432.400	22.660
1399	13.98000	0.000	0.000	0.000	723.443	432.985	22.475
1400	13.99000	0.000	0.000	0.000	723.516	433.592	22.261
1401	14.00000	0.000	0.000	0.000	723.545	434.119	22.138
1402	14.01000	0.000	0.000	0.000	723.681	434.777	21.843
1403	14.02000	0.000	0.000	0.000	723.746	435.295	21.672
1404	14.03000	0.000	0.000	0.000	723.746	435.768	21.586
1405	14.04000	0.000	0.000	0.000	723.945	436.330	21.318
1406	14.05000	0.000	0.000	0.000	723.895	436.888	21.184
1407	14.06000	0.000	0.000	0.000	723.946	437.534	20.963
1408	14.07000	0.000	0.000	0.000	723.904	438.119	20.759
1409	14.08000	0.000	0.000	0.000	723.996	438.723	20.543
1410	14.09000	0.000	0.000	0.000	724.002	439.267	20.358
1411	14.10000	0.000	0.000	0.000	724.108	439.791	20.089
1412	14.11000	0.000	0.000	0.000	724.189	440.324	19.854
1413	14.12000	0.000	0.000	0.000	724.237	440.778	19.625
1414	14.13000	0.000	0.000	0.000	724.274	441.230	19.409
1415	14.14000	0.000	0.000	0.000	724.237	441.605	19.301
1416	14.15000	0.000	0.000	0.000	724.287	441.963	19.126
1417	14.16000	0.000	0.000	0.000	724.338	442.354	18.914
1418	14.17000	0.000	0.000	0.000	724.425	442.721	18.747
1419	14.18000	0.000	0.000	0.000	724.421	443.016	18.661
1420	14.19000	0.000	0.000	0.000	724.503	443.358	18.462
1421	14.20000	0.000	0.000	0.000	724.636	443.705	18.326
1422	14.21000	0.000	0.000	0.000	724.781	444.156	18.097
1423	14.22000	0.000	0.000	0.000	724.848	444.510	17.949
1424	14.23000	0.000	0.000	0.000	724.943	444.917	17.836
1425	14.24000	0.000	0.000	0.000	725.020	445.241	17.711
1426	14.25000	0.000	0.000	0.000	725.188	445.623	17.497
1427	14.26000	0.000	0.000	0.000	725.390	445.926	17.305
1428	14.27000	0.000	0.000	0.000	725.479	446.192	17.188
1429	14.28000	0.000	0.000	0.000	725.600	446.448	17.051
1430	14.29000	0.000	0.000	0.000	725.748	446.733	16.918
1431	14.30000	0.000	0.000	0.000	725.811	446.906	16.842
1432	14.31000	0.000	0.000	0.000	725.868	447.130	16.770
1433	14.32000	0.000	0.000	0.000	725.940	447.317	16.689
1434	14.33000	0.000	0.000	0.000	725.992	447.528	16.594
1435	14.34000	0.000	0.000	0.000	726.034	447.712	16.524
1436	14.35000	0.000	0.000	0.000	726.064	447.896	16.468
1437	14.36000	0.000	0.000	0.000	726.044	448.035	16.456
1438	14.37000	0.000	0.000	0.000	726.016	448.200	16.415
1439	14.38000	0.000	0.000	0.000	726.012	448.380	16.327
1440	14.39000	0.000	0.000	0.000	725.959	448.620	16.275
1441	14.40000	0.000	0.000	0.000	725.979	448.905	16.154
1442	14.41000	0.000	0.000	0.000	725.928	449.158	16.081
1443	14.42000	0.000	0.000	0.000	725.908	449.414	15.997
1444	14.43000	0.000	0.000	0.000	725.867	449.694	15.899
1445	14.44000	0.000	0.000	0.000	725.846	449.949	15.815
1446	14.45000	0.000	0.000	0.000	725.822	450.179	15.773
1447	14.46000	0.000	0.000	0.000	725.806	450.345	15.792
1448	14.47000	0.000	0.000	0.000	725.870	450.583	15.743
1449	14.48000	0.000	0.000	0.000	725.867	450.737	15.740
1450	14.49000	0.000	0.000	0.000	725.930	450.975	15.692
1451	14.50000	0.000	0.000	0.000	725.959	451.170	15.717
1452	14.51000	0.000	0.000	0.000	725.980	451.405	15.620
1453	14.52000	0.000	0.000	0.000	726.008	451.601	15.573
1454	14.53000	0.000	0.000	0.000	726.044	451.862	15.494
1455	14.54000	0.000	0.000	0.000	725.991	452.083	15.459
1456	14.55000	0.000	0.000	0.000	726.014	452.285	15.371
1457	14.56000	0.000	0.000	0.000	726.010	452.491	15.343
1458	14.57000	0.000	0.000	0.000	726.085	452.769	15.247
1459	14.58000	0.000	0.000	0.000	726.169	453.049	15.094
1460	14.59000	0.000	0.000	0.000	726.262	453.316	15.020
1461	14.60000	0.000	0.000	0.000	726.317	453.580	14.943
1462	14.61000	0.000	0.000	0.000	726.346	453.840	14.923
1463	14.62000	0.000	0.000	0.000	726.363	454.036	14.888
1464	14.63000	0.000	0.000	0.000	726.397	454.220	14.803
1465	14.64000	0.000	0.000	0.000	726.415	454.344	14.811
1466	14.65000	0.000	0.000	0.000	726.479	454.532	14.714
1467	14.66000	0.000	0.000	0.000	726.548	454.694	14.674
1468	14.67000	0.000	0.000	0.000	726.632	454.805	14.544
1469	14.68000	0.000	0.000	0.000	726.651	454.942	14.531
1470	14.69000	0.000	0.000	0.000	726.753	455.043	14.423
1471	14.70000	0.000	0.000	0.000	726.758	455.154	14.392
1472	14.71000	0.000	0.000	0.000	726.783	455.272	14.338
1473	14.72000	0.000	0.000	0.000	726.833	455.426	14.292
1474	14.73000	0.000	0.000	0.000	726.945	455.540	14.179
1475	14.74000	0.000	0.000	0.000	726.994	455.596	14.217
1476	14.75000	0.000	0.000	0.000	727.164	455.703	14.102
1477	14.76000	0.000	0.000	0.000	727.288	455.767	14.074
1478	14.77000	0.000	0.000	0.000	727.397	455.803	14.028
1479	14.78000	0.000	0.000	0.000	727.486	455.870	14.044
1480	14.79000	0.000	0.000	0.000	727.590	455.951	13.925
1481	14.80000	0.000	0.000	0.000	727.585	455.983	13.945
1482	14.81000	0.000	0.000	0.000	727.725	456.068	13.858
1483	14.82000	0.000	0.000	0.000	727.772	456.085	13.856
1484	14.83000	0.000	0.000	0.000	727.949	456.154	13.789
1485	14.84000	0.000	0.000	0.000	728.019	456.148	13.773
1486	14.85000	0.000	0.000	0.000	728.147	456.212	13.716
1487	14.86000	0.000	0.000	0.000	728.204	456.282	13.676
1488	14.87000	0.000	0.000	0.000	728.367	456.389	13.545
1489	14.88000	0.000	0.000	0.000	728.367	456.454	13.498
1490	14.89000	0.000	0.000	0.000	728.430	456.538	13.408
1491	14.90000	0.000	0.000	0.000	728.562	456.616	13.301
1492	14.91000	0.000	0.000	0.000	728.641	456.675	13.254
1493	14.92000	0.000	0.000	0.000	728.714	456.721	13.257
1494	14.93000	0.000	0.000	0.000	728.767	456.817	13.232
1495	14.94000	0.000	0.000	0.000	728.869	456.897	13.215
1496	14.95000	0.000	0.000	0.000	728.892	457.016	13.190
1497	14.96000	0.000	0.000	0.000	728.935	457.078	13.188
1498	14.97000	0.000	0.000	0.000	728.960	457.183	13.154
1499	14.98000	0.000	0.000	0.000	728.967	457.262	13.205
1500	14.99000	0.000	0.000	0.000	729.021	457.325	13.189
1501	15.00000	0.000	0.000	0.000	729.039	457.423	13.210
1502	15.01000	0.000	0.000	0.000	729.090	457.538	13.197
1503	15.02000	0.000	0.000	0.000	729.107	457.662	13.205
1504	15.03000	0.000	0.000	0.000	729.080	457.775	13.190
1505	15.04000	0.000	0.000	0.000	729.127	457.948	13.157
1506	15.05000	0.000	0.000	0.000	729.068	458.097	13.222
1507	15.06000	0.000	0.000	0.000	729.069	458.252	13.190
1508	15.07000	0.000	0.000	0.000	729.033	458.378	13.240
1509	15.08000	0.000	0.000	0.000	729.068	458.484	13.194
1510	15.09000	0.000	0.000	0.000	729.038	458.571	13.293
1511	15.10000	0.000	0.000	0.000	729.071	458.743	13.229
1512	15.11000	0.000	0.000	0.000	729.092	458.938	13.239
1513	15.12000	0.000	0.000	0.000	729.089	459.158	13.190
1514	15.13000	0.000	0.000	0.000	729.082	459.430	13.144
1515	15.14000	0.000	0.000	0.000	729.154	459.774	12.958
1516	15.15000	0.000	0.000	0.000	729.179	460.035	12.893
1517	15.16000	0.000	0.000	0.000	729.190	460.309	12.849
1518	15.17000	0.000	0.000	0.000	729.216	460.583	12.763
1519	15.18000	0.000	0.000	0.000	729.316	460.813	12.665
1520	15.19000	0.000	0.000	0.000	729.448	461.071	12.588
1521	15.20000	0.000	0.000	0.000	729.528	461.260	12.522
1522	15.21000	0.000	0.000	0.000	729.614	461.437	12.492
1523	15.22000	0.000	0.000	0.000	729.763	461.763	12.325
1524	15.23000	0.000	0.000	0.000	729.740	462.059	12.236
1525	15.24000	0.000	0.000	0.000	729.817	462.352	12.119
1526	15.25000	0.000	0.000	0.000	729.820	462.690	12.014
1527	15.26000	0.000	0.000	0.000	729.836	463.056	11.882
1528	15.27000	0.000	0.000	0.000	729.912	463.439	11.706
1529	15.28000	0.000	0.000	0.000	729.959	463.729	11.601
1530	15.29000	0.000	0.000	0.000	730.061	464.038	11.509
1531	15.30000	0.000	0.000	0.000	730.225	464.223	11.384
1532	15.31000	0.000	0.000	0.000	730.458	464.389	11.191
1533	15.32000	0.000	0.000	0.000	730.510	464.329	11.125
1534	15.33000	0.000	0.000	0.000	730.336	464.080	11.133
1535	15.34000	0.000	0.000	0.000	729.711	463.540	11.379
1536	15.35000	0.000	0.000	0.000	728.789	462.726	11.702
1537	15.36000	0.000	0.000	0.000	727.576	461.506	12.313
1538	15.37000	0.000	0.000	0.000	726.100	459.783	13.030
1539	15.38000	0.000	0.000	0.000	724.230	457.400	14.101
1540	15.39000	0.000	0.000	0.000	721.892	454.377	15.479
1541	15.40000	0.000	0.000	0.000	719.020	450.569	17.328
1542	15.41000	0.000	0.000	0.000	715.586	445.886	19.647
1543	15.42000	0.000	0.000	0.000	711.565	440.394	22.590
1544	15.43000	0.000	0.000	0.000	707.104	433.999	26.224
1545	15.44000	0.000	0.000	0.000	702.157	426.795	30.542
1546	15.45000	0.000	0.000	0.000	696.814	418.722	35.591
1547	15.46000	0.000	0.000	0.000	691.232	409.760	41.418
1548	15.47000	0.000	0.000	0.000	685.585	400.144	47.822
1549	15.48000	0.000	0.000	0.000	679.620	389.829	54.981
1550	15.49000	0.000	0.000	0.000	673.466	379.008	62.827
1551	15.50000	0.000	0.000	0.000	667.023	367.734	71.440
1552	15.51000	0.000	0.000	0.000	660.321	356.109	80.780
1553	15.52000	0.000	0.000	0.000	653.370	344.284	90.931
1554	15.53000	0.000	0.000	0.000	646.355	332.259	101.843
1555	15.54000	0.000	0.000	0.000	639.291	319.982	113.471
1556	15.55000	0.000	0.000	0.000	632.307	307.473	125.925
1557	15.56000	0.000	0.000	0.000	625.355	294.866	139.086
1558	15.57000	0.000	0.000	0.000	618.292	282.094	153.167
1559	15.58000	0.000	0.000	0.000	611.070	269.292	168.200
1560	15.59000	0.000	0.000	0.000	603.902	256.496	184.062
1561	15.60000	0.000	0.000	0.000	596.858	243.796	200.809
1562	15.61000	0.000	0.000	0.000	589.898	231.231	218.493
1563	15.62000	0.000	0.000	0.000	583.155	218.987	236.898
1564	15.63000	0.000	0.000	0.000	576.592	207.027	256.048
1565	15.64000	0.000	0.000	0.000	570.388	195.480	275.896
1566	15.65000	0.000	0.000	0.000	564.496	184.351	296.277
1567	15.66000	0.000	0.000	0.000	558.835	173.798	317.338
1568	15.67000	0.000	0.000	0.000	553.688	163.964	338.653
1569	15.68000	0.000	0.000	0.000	548.832	154.845	360.237
1570	15.69000	0.000	0.000	0.000	544.366	146.425	381.890
1571	15.70000	0.000	0.000	0.000	540.261	138.687	403.626
1572	15.71000	0.000	0.000	0.000	536.642	131.567	425.345
1573	15.72000	0.000	0.000	0.000	533.488	125.045	446.896
1574	15.73000	0.000	0.000	0.000	530.796	119.084	468.262
1575	15.74000	0.000	0.000	0.000	528.511	113.710	489.328
1576	15.75000	0.000	0.000	0.000	526.622	108.913	510.076
1577	15.76000	0.000	0.000	0.000	524.999	104.675	530.485
1578	15.77000	0.000	0.000	0.000	523.544	101.035	550.600
1579	15.78000	0.000	0.000	0.000	522.368	97.945	570.214
1580	15.79000	0.000	0.000	0.000	521.471	95.444	589.304
1581	15.80000	0.000	0.000	0.000	520.672	93.435	607.895
1582	15.81000	0.000	0.000	0.000	520.006	91.900	625.891
1583	15.82000	0.000	0.000	0.000	519.627	90.751	643.133
1584	15.83000	0.000	0.000	0.000	519.355	89.954	659.576
1585	15.84000	0.000	0.000	0.000	519.248	89.373	675.201
1586	15.85000	0.000	0.000	0.000	519.155	89.058	690.012
1587	15.86000	0.000	0.000	0.000	519.082	89.020	703.841
1588	15.87000	0.000	0.000	0.000	518.920	89.204	716.808
1589	15.88000	0.000	0.000	0.000	518.770	89.597	728.866
1590	15.89000	0.000	0.000	0.000	518.544	90.072	740.050
1591	15.90000	0.000	0.000	0.000	518.413	90.643	750.431
1592	15.91000	0.000	0.000	0.000	518.371	91.210	759.992
1593	15.92000	0.000	0.000	0.000	518.426	91.794	768.754
1594	15.93000	0.000	0.000	0.000	518.526	92.277	776.767
1595	15.94000	0.000	0.000	0.000	518.696	92.743	784.032
1596	15.95000	0.000	0.000	0.000	518.864	93.100	790.538
1597	15.96000	0.000	0.000	0.000	518.894	93.434	796.313
1598	15.97000	0.000	0.000	0.000	518.858	93.738	801.366
1599	15.98000	0.000	0.000	0.000	518.596	94.036	805.819
1600	15.99000	0.000	0.000	0.000	518.346	94.305	809.609
1601	16.00000	0.000	0.000	0.000	517.987	94.498	812.928
1602	16.01000	0.000	0.000	0.000	517.670	94.615	815.737
1603	16.02000	0.000	0.000	0.000	517.303	94.650	818.252
1604	16.03000	0.000	0.000	0.000	516.901	94.727	820.427
1605	16.04000	0.000	0.000	0.000	516.490	94.881	822.323
1606	16.05000	0.000	0.000	0.000	516.035	95.119	824.043
1607	16.06000	0.000	0.000	0.000	515.637	95.334	825.556
1608	16.07000	0.000	0.000	0.000	515.382	95.424	826.877
1609	16.08000	0.000	0.000	0.000	515.296	95.430	827.965
1610	16.09000	0.000	0.000	0.000	515.360	95.427	828.924
1611	16.10000	0.000	0.000	0.000	515.387	95.473	829.826
1612	16.11000	0.000	0.000	0.000	515.515	95.568	830.664
1613	16.12000	0.000	0.000	0.000	515.613	95.718	831.429
1614	16.13000	0.000	0.000	0.000	515.700	95.836	832.143
1615	16.14000	0.000	0.000	0.000	515.873	95.918	832.650
1616	16.15000	0.000	0.000	0.000	516.039	95.956	832.986
1617	16.16000	0.000	0.000	0.000	516.179	95.942	833.195
1618	16.17000	0.000	0.000	0.000	516.313	96.013	833.267
1619	16.18000	0.000	0.000	0.000	516.413	96.049	833.305
1620	16.19000	0.000	0.000	0.000	516.513	96.094	833.259
1621	16.20000	0.000	0.000	0.000	516.569	96.134	833.088
1622	16.21000	0.000	0.000	0.000	516.609	96.057	832.799
1623	16.22000	0.000	0.000	0.000	516.608	95.950	832.358
1624	16.23000	0.000	0.000	0.000	516.559	95.827	831.852
1625	16.24000	0.000	0.000	0.000	516.457	95.725	831.297
1626	16.25000	0.000	0.000	0.000	516.194	95.667	830.688
1627	16.26000	0.000	0.000	0.000	515.842	95.705	830.149
1628	16.27000	0.000	0.000	0.000	515.408	95.803	829.588
1629	16.28000	0.000	0.000	0.000	514.964	95.911	829.041
1630	16.29000	0.000	0.000	0.000	514.528	95.952	828.421
1631	16.30000	0.000	0.000	0.000	514.088	96.014	827.771
1632	16.31000	0.000	0.000	0.000	513.674	96.114	827.120
1633	16.32000	0.000	0.000	0.000	513.240	96.221	826.475
1634	16.33000	0.000	0.000	0.000	512.792	96.323	825.887
1635	16.34000	0.000	0.000	0.000	512.425	96.440	825.325
1636	16.35000	0.000	0.000	0.000	512.051	96.536	824.809
1637	16.36000	0.000	0.000	0.000	511.753	96.666	824.264
1638	16.37000	0.000	0.000	0.000	511.382	96.793	823.789
1639	16.38000	0.000	0.000	0.000	511.075	96.924	823.268
1640	16.39000	0.000	0.000	0.000	510.787	96.967	822.761
1641	16.40000	0.000	0.000	0.000	510.583	96.978	822.226
1642	16.41000	0.000	0.000	0.000	510.328	96.956	821.697
1643	16.42000	0.000	0.000	0.000	510.013	97.004	821.187
1644	16.43000	0.000	0.000	0.000	509.687	97.062	820.649
1645	16.44000	0.000	0.000	0.000	509.273	97.156	820.163
1646	16.45000	0.000	0.000	0.000	508.905	97.254	819.654
1647	16.46000	0.000	0.000	0.000	508.572	97.302	819.101
1648	16.47000	0.000	0.000	0.000	508.245	97.330	818.512
1649	16.48000	0.000	0.000	0.000	508.002	97.337	817.925
1650	16.49000	0.000	0.000	0.000	507.808	97.347	817.365
1651	16.50000	0.000	0.000	0.000	507.600	97.338	816.883
1652	16.51000	0.000	0.000	0.000	507.376	97.347	816.437
1653	16.52000	0.000	0.000	0.000	507.132	97.369	815.986
1654	16.53000	0.000	0.000	0.000	506.888	97.384	815.545
1655	16.54000	0.000	0.000	0.000	506.623	97.401	815.070
1656	16.55000	0.000	0.000	0.000	506.387	97.386	814.579
1657	16.56000	0.000	0.000	0.000	506.236	97.363	814.045
1658	16.57000	0.000	0.000	0.000	506.017	97.342	813.631
1659	16.58000	0.000	0.000	0.000	505.892	97.320	813.223
1660	16.59000	0.000	0.000	0.000	505.776	97.287	812.776
1661	16.60000	0.000	0.000	0.000	505.670	97.255	812.321
1662	16.61000	0.000	0.000	0.000	505.629	97.181	811.781
1663	16.62000	0.000	0.000	0.000	505.640	97.061	811.213
1664	16.63000	0.000	0.000	0.000	505.662	96.949	810.619
1665	16.64000	0.000	0.000	0.000	505.733	96.802	810.029
1666	16.65000	0.000	0.000	0.000	505.812	96.650	809.539
1667	16.66000	0.000	0.000	0.000	505.966	96.451	808.975
1668	16.67000	0.000	0.000	0.000	506.061	96.195	808.438
1669	16.68000	0.000	0.000	0.000	506.215	95.934	807.922
1670	16.69000	0.000	0.000	0.000	506.325	95.691	807.407
1671	16.70000	0.000	0.000	0.000	506.374	95.496	806.952
1672	16.71000	0.000	0.000	0.000	506.375	95.357	806.537
1673	16.72000	0.000	0.000	0.000	506.327	95.216	806.104
1674	16.73000	0.000	0.000	0.000	506.274	95.034	805.681
1675	16.74000	0.000	0.000	0.000	506.243	94.788	805.267
1676	16.75000	0.000	0.000	0.000	506.208	94.570	804.888
1677	16.76000	0.000	0.000	0.000	506.116	94.369	804.584
1678	16.77000	0.000	0.000	0.000	505.999	94.227	804.389
1679	16.78000	0.000	0.000	0.000	505.890	94.128	804.192
1680	16.79000	0.000	0.000	0.000	505.801	94.040	804.068
1681	16.80000	0.000	0.000	0.000	505.752	93.897	803.919
1682	16.81000	0.000	0.000	0.000	505.745	93.711	803.783
1683	16.82000	0.000	0.000	0.000	505.774	93.490	803.600
1684	16.83000	0.000	0.000	0.000	505.811	93.289	803.496
1685	16.84000	0.000	0.000	0.000	505.885	93.172	803.481
1686	16.85000	0.000	0.000	0.000	505.922	93.053	803.505
1687	16.86000	0.000	0.000	0.000	505.952	92.886	803.492
1688	16.87000	0.000	0.000	0.000	505.980	92.739	803.507
1689	16.88000	0.000	0.000	0.000	506.033	92.607	803.470
1690	16.89000	0.000	0.000	0.000	506.046	92.493	803.500
1691	16.90000	0.000	0.000	0.000	506.101	92.433	803.569
1692	16.91000	0.000	0.000	0.000	506.166	92.369	803.665
1693	16.92000	0.000	0.000	0.000	506.269	92.252	803.768
1694	16.93000	0.000	0.000	0.000	506.365	92.135	803.879
1695	16.94000	0.000	0.000	0.000	506.505	92.003	803.946
1696	16.95000	0.000	0.000	0.000	506.580	91.883	804.057
1697	16.96000	0.000	0.000	0.000	506.715	91.785	804.132
1698	16.97000	0.000	0.000	0.000	506.780	91.701	804.283
1699	16.98000	0.000	0.000	0.000	506.884	91.640	804.430
1700	16.99000	0.000	0.000	0.000	506.962	91.568	804.511
1701	17.00000	0.000	0.000	0.000	507.025	91.471	804.616
1702	17.01000	0.000	0.000	0.000	507.042	91.353	804.681
1703	17.02000	0.000	0.000	0.000	507.066	91.254	804.750
1704	17.03000	0.000	0.000	0.000	507.021	91.189	804.839
1705	17.04000	0.000	0.000	0.000	507.020	91.158	804.948
1706	17.05000	0.000	0.000	0.000	506.946	91.164	805.101
1707	17.06000	0.000	0.000	0.000	506.880	91.154	805.183
1708	17.07000	0.000	0.000	0.000	506.882	91.119	805.251
1709	17.08000	0.000	0.000	0.000	506.863	91.087	805.300
1710	17.09000	0.000	0.000	0.000	506.842	91.030	805.347
1711	17.10000	0.000	0.000	0.000	506.863	90.977	805.379
1712	17.11000	0.000	0.000	0.000	506.924	90.961	805.453
1713	17.12000	0.000	0.000	0.000	506.952	90.900	805.554
1714	17.13000	0.000	0.000	0.000	506.984	90.855	805.634
1715	17.14000	0.000	0.000	0.000	506.977	90.860	805.683
1716	17.15000	0.000	0.000	0.000	506.971	90.860	805.699
1717	17.16000	0.000	0.000	0.000	506.932	90.857	805.648
1718	17.17000	0.000	0.000	0.000	506.890	90.852	805.588
1719	17.18000	0.000	0.000	0.000	506.883	90.813	805.481
1720	17.19000	0.000	0.000	0.000	506.896	90.769	805.368
1721	17.20000	0.000	0.000	0.000	506.899	90.719	805.298
1722	17.21000	0.000	0.000	0.000	506.891	90.696	805.253
1723	17.22000	0.000	0.000	0.000	506.872	90.679	805.207
1724	17.23000	0.000	0.000	0.000	506.838	90.649	805.137
1725	17.24000	0.000	0.000	0.000	506.792	90.632	805.047
1726	17.25000	0.000	0.000	0.000	506.759	90.577	804.910
1727	17.26000	0.000	0.000	0.000	506.714	90.537	804.767
1728	17.27000	0.000	0.000	0.000	506.628	90.509	804.636
1729	17.28000	0.000	0.000	0.000	506.580	90.478	804.500
1730	17.29000	0.000	0.000	0.000	506.529	90.441	804.390
1731	17.30000	0.000	0.000	0.000	506.489	90.421	804.267
1732	17.31000	0.000	0.000	0.000	506.424	90.389	804.222
1733	17.32000	0.000	0.000	0.000	506.424	90.389	804.155
1734	17.33000	0.000	0.000	0.000	506.333	90.383	804.144
1735	17.34000	0.000	0.000	0.000	506.364	90.380	804.079
1736	17.35000	0.000	0.000	0.000	506.348	90.359	804.067
1737	17.36000	0.000	0.000	0.000	506.405	90.292	803.996
1738	17.37000	0.000	0.000	0.000	506.475	90.254	803.935
1739	17.38000	0.000	0.000	0.000	506.452	90.231	803.914
1740	17.39000	0.000	0.000	0.000	506.419	90.250	803.908
1741	17.40000	0.000	0.000	0.000	506.305	90.334	803.980
1742	17.41000	0.000	0.000	0.000	506.212	90.380	803.996
1743	17.42000	0.000	0.000	0.000	506.134	90.454	804.006
1744	17.43000	0.000	0.000	0.000	506.051	90.449	804.002
1745	17.44000	0.000	0.000	0.000	505.986	90.454	803.989
1746	17.45000	0.000	0.000	0.000	505.893	90.463	803.973
1747	17.46000	0.000	0.000	0.000	505.821	90.520	803.979
1748	17.47000	0.000	0.000	0.000	505.692	90.591	804.037
1749	17.48000	0.000	0.000	0.000	505.541	90.686	804.113
1750	17.49000	0.000	0.000	0.000	505.436	90.754	804.190
1751	17.50000	0.000	0.000	0.000	505.322	90.799	804.222
1752	17.51000	0.000	0.000	0.000	505.250	90.846	804.289
1753	17.52000	0.000	0.000	0.000	505.175	90.894	804.373
1754	17.53000	0.000	0.000	0.000	505.087	90.916	804.462
1755	17.54000	0.000	0.000	0.000	505.028	90.945	804.577
1756	17.55000	0.000	0.000	0.000	505.005	90.994	804.671
1757	17.56000	0.000	0.000	0.000	504.923	91.047	804.736
1758	17.57000	0.000	0.000	0.000	504.838	91.102	804.818
1759	17.58000	0.000	0.000	0.000	504.727	91.135	804.895
1760	17.59000	0.000	0.000	0.000	504.668	91.184	804.954
1761	17.60000	0.000	0.000	0.000	504.601	91.195	804.997
1762	17.61000	0.000	0.000	0.000	504.543	91.199	805.043
1763	17.62000	0.000	0.000	0.000	504.409	91.200	805.169
1764	17.63000	0.000	0.000	0.000	504.281	91.270	805.369
1765	17.64000	0.000	0.000	0.000	504.231	91.367	805.550
1766	17.65000	0.000	0.000	0.000	504.088	91.415	805.813
1767	17.66000	0.000	0.000	0.000	503.968	91.450	806.064
1768	17.67000	0.000	0.000	0.000	503.884	91.506	806.312
1769	17.68000	0.000	0.000	0.000	503.771	91.533	806.566
1770	17.69000	0.000	0.000	0.000	503.664	91.654	806.895
1771	17.70000	0.000	0.000	0.000	503.510	91.769	807.307
1772	17.71000	0.000	0.000	0.000	503.510	91.880	807.703
1773	17.72000	0.000	0.000	0.000	503.429	91.959	808.145
1774	17.73000	0.000	0.000	0.000	503.375	91.988	808.484
1775	17.74000	0.000	0.000	0.000	503.425	92.033	808.741
1776	17.75000	0.000	0.000	0.000	503.371	92.064	809.030
1777	17.76000	0.000	0.000	0.000	503.319	92.141	809.265
1778	17.77000	0.000	0.000	0.000	503.208	92.243	809.574
1779	17.78000	0.000	0.000	0.000	503.127	92.388	809.856
1780	17.79000	0.000	0.000	0.000	503.031	92.520	810.116
1781	17.80000	0.000	0.000	0.000	502.909	92.626	810.332
1782	17.81000	0.000	0.000	0.000	502.855	92.670	810.500
1783	17.82000	0.000	0.000	0.000	502.805	92.673	810.680
1784	17.83000	0.000	0.000	0.000	502.803	92.740	810.820
1785	17.84000	0.000	0.000	0.000	502.704	92.780	811.021
1786	17.85000	0.000	0.000	0.000	502.645	92.841	811.193
1787	17.86000	0.000	0.000	0.000	502.594	92.886	811.370
1788	17.87000	0.000	0.000	0.000	502.564	92.927	811.557
1789	17.88000	0.000	0.000	0.000	502.555	92.947	811.676
1790	17.89000	0.000	0.000	0.000	502.535	92.980	811.849
1791	17.90000	0.000	0.000	0.000	502.544	93.044	812.032
1792	17.91000	0.000	0.000	0.000	502.614	93.085	812.233
1793	17.92000	0.000	0.000	0.000	502.660	93.083	812.444
1794	17.93000	0.000	0.000	0.000	502.789	93.036	812.604
1795	17.94000	0.000	0.000	0.000	502.889	92.972	812.726
1796	17.95000	0.000	0.000	0.000	502.961	92.898	812.865
1797	17.96000	0.000	0.000	0.000	503.009	92.838	812.949
1798	17.97000	0.000	0.000	0.000	503.053	92.812	813.108
1799	17.98000	0.000	0.000	0.000	503.103	92.789	813.208
1800	17.99000	0.000	0.000	0.000	503.149	92.740	813.314
1801	18.00000	0.000	0.000	0.000	503.151	92.660	813.435
1802	18.01000	0.000	0.000	0.000	503.217	92.603	813.586
1803	18.02000	0.000	0.000	0.000	503.278	92.523	813.776
1804	18.03000	0.000	0.000	0.000	503.371	92.489	814.022
1805	18.04000	0.000	0.000	0.000	503.416	92.457	814.281
1806	18.05000	0.000	0.000	0.000	503.513	92.394	814.560
1807	18.06000	0.000	0.000	0.000	503.618	92.284	814.793
1808	18.07000	0.000	0.000	0.000	503.747	92.186	815.025
1809	18.08000	0.000	0.000	0.000	503.819	92.153	815.311
1810	18.09000	0.000	0.000	0.000	503.804	92.141	815.677
1811	18.10000	0.000	0.000	0.000	503.804	92.151	816.080
1812	18.11000	0.000	0.000	0.000	503.812	92.172	816.481
1813	18.12000	0.000	0.000	0.000	503.829	92.180	816.911
1814	18.13000	0.000	0.000	0.000	503.820	92.155	817.314
1815	18.14000	0.000	0.000	0.000	503.950	92.145	817.721
1816	18.15000	0.000	0.000	0.000	504.009	92.099	818.215
1817	18.16000	0.000	0.000	0.000	504.060	92.096	818.724
1818	18.17000	0.000	0.000	0.000	504.082	92.061	819.213
1819	18.18000	0.000	0.000	0.000	504.073	92.017	819.670
1820	18.19000	0.000	0.000	0.000	503.985	91.957	820.085
1821	18.20000	0.000	0.000	0.000	503.911	91.905	820.416
1822	18.21000	0.000	0.000	0.000	503.812	91.884	820.746
1823	18.22000	0.000	0.000	0.000	503.661	91.855	821.009
1824	18.23000	0.000	0.000	0.000	503.559	91.813	821.237
1825	18.24000	0.000	0.000	0.000	503.424	91.744	821.412
1826	18.25000	0.000	0.000	0.000	503.315	91.656	821.544
1827	18.26000	0.000	0.000	0.000	503.125	91.544	821.636
1828	18.27000	0.000	0.000	0.000	502.994	91.458	821.593
1829	18.28000	0.000	0.000	0.000	502.799	91.361	821.451
1830	18.29000	0.000	0.000	0.000	502.660	91.275	821.185
1831	18.30000	0.000	0.000	0.000	502.490	91.151	820.770
1832	18.31000	0.000	0.000	0.000	502.348	90.979	820.113
1833	18.32000	0.000	0.000	0.000	502.168	90.755	819.269
1834	18.33000	0.000	0.000	0.000	501.996	90.494	818.087
1835	18.34000	0.000	0.000	0.000	501.795	90.188	816.617
1836	18.35000	0.000	0.000	0.000	501.556	89.863	814.808
1837	18.36000	0.000	0.000	0.000	501.219	89.543	812.651
1838	18.37000	0.000	0.000	0.000	500.907	89.258	810.093
1839	18.38000	0.000	0.000	0.000	500.584	88.860	807.077
1840	18.39000	0.000	0.000	0.000	500.318	88.337	803.607
1841	18.40000	0.000	0.000	0.000	500.007	87.736	799.594
1842	18.41000	0.000	0.000	0.000	499.705	87.100	795.094
1843	18.42000	0.000	0.000	0.000	499.405	86.458	790.094
1844	18.43000	0.000	0.000	0.000	499.239	85.845	784.553
1845	18.44000	0.000	0.000	0.000	499.023	85.131	778.557
1846	18.45000	0.000	0.000	0.000	498.886	84.417	771.926
1847	18.46000	0.000	0.000	0.000	498.629	83.705	764.703
1848	18.47000	0.000	0.000	0.000	498.328	83.037	756.792
1849	18.48000	0.000	0.000	0.000	498.019	82.419	748.086
1850	18.49000	0.000	0.000	0.000	497.695	81.837	738.707
1851	18.50000	0.000	0.000	0.000	497.482	81.338	728.632
1852	18.51000	0.000	0.000	0.000	497.518	80.890	717.756
1853	18.52000	0.000	0.000	0.000	497.871	80.477	706.122
1854	18.53000	0.000	0.000	0.000	498.468	80.053	693.730
1855	18.54000	0.000	0.000	0.000	499.422	79.678	680.401
1856	18.55000	0.000	0.000	0.000	500.372	79.489	666.345
1857	18.56000	0.000	0.000	0.000	501.462	79.613	651.494
1858	18.57000	0.000	0.000	0.000	502.565	80.093	635.937
1859	18.58000	0.000	0.000	0.000	503.746	80.848	619.603
1860	18.59000	0.000	0.000	0.000	505.201	81.855	602.567
1861	18.60000	0.000	0.000	0.000	506.927	83.154	584.897
1862	18.61000	0.000	0.000	0.000	508.905	84.839	566.814
1863	18.62000	0.000	0.000	0.000	511.108	86.935	548.421
1864	18.63000	0.000	0.000	0.000	513.537	89.464	529.742
1865	18.64000	0.000	0.000	0.000	516.161	92.455	510.929
1866	18.65000	0.000	0.000	0.000	518.924	95.885	491.914
1867	18.66000	0.000	0.000	0.000	521.901	99.877	472.657
1868	18.67000	0.000	0.000	0.000	524.984	104.469	453.261
1869	18.68000	0.000	0.000	0.000	528.190	109.664	433.995
1870	18.69000	0.000	0.000	0.000	531.651	115.386	414.839
1871	18.70000	0.000	0.000	0.000	535.378	121.461	395.852
1872	18.71000	0.000	0.000	0.000	539.447	127.789	377.002
1873	18.72000	0.000	0.000	0.000	543.779	134.376	358.353
1874	18.73000	0.000	0.000	0.000	548.288	141.335	339.922
1875	18.74000	0.000	0.000	0.000	552.760	148.761	321.933
1876	18.75000	0.000	0.000	0.000	557.299	156.631	304.493
1877	18.76000	0.000	0.000	0.000	561.771	164.798	287.697
1878	18.77000	0.000	0.000	0.000	566.381	173.079	271.692
1879	18.78000	0.000	0.000	0.000	571.233	181.299	256.346
1880	18.79000	0.000	0.000	0.000	576.266	189.472	241.714
1881	18.80000	0.000	0.000	0.000	581.264	197.527	228.002
1882	18.81000	0.000	0.000	0.000	586.370	205.556	214.989
1883	18.82000	0.000	0.000	0.000	591.373	213.421	202.782
1884	18.83000	0.000	0.000	0.000	596.579	221.083	191.145
1885	18.84000	0.000	0.000	0.000	602.002	228.541	180.003
1886	18.85000	0.000	0.000	0.000	607.324	235.866	169.391
1887	18.86000	0.000	0.000	0.000	612.356	243.047	159.581
1888	18.87000	0.000	0.000	0.000	617.048	250.142	150.507
1889	18.88000	0.000	0.000	0.000	621.579	257.062	142.036
1890	18.89000	0.000	0.000	0.000	625.952	263.882	134.213
1891	18.90000	0.000	0.000	0.000	630.361	270.535	126.755
1892	18.91000	0.000	0.000	0.000	634.878	276.948	119.684
1893	18.92000	0.000	0.000	0.000	639.286	283.152	113.111
1894	18.93000	0.000	0.000	0.000	643.677	289.136	106.887
1895	18.94000	0.000	0.000	0.000	647.735	294.827	101.259
1896	18.95000	0.000	0.000	0.000	651.519	300.346	96.076
1897	18.96000	0.000	0.000	0.000	655.100	305.612	91.277
1898	18.97000	0.000	0.000	0.000	658.542	310.746	86.744
1899	18.98000	0.000	0.000	0.000	661.991	315.715	82.454
1900	18.99000	0.000	0.000	0.000	665.411	320.736	78.271
1901	19.00000	0.000	0.000	0.000	668.550	325.687	74.340
1902	19.01000	0.000	0.000	0.000	671.390	330.616	70.747
1903	19.02000	0.000	0.000	0.000	673.977	335.500	67.316
1904	19.03000	0.000	0.000	0.000	676.449	340.281	64.061
1905	19.04000	0.000	0.000	0.000	678.611	344.793	61.211
1906	19.05000	0.000	0.000	0.000	680.874	349.195	58.342
1907	19.06000	0.000	0.000	0.000	682.949	353.372	55.731
1908	19.07000	0.000	0.000	0.000	685.032	357.416	53.258
1909	19.08000	0.000	0.000	0.000	687.011	361.337	50.917
1910	19.09000	0.000	0.000	0.000	688.783	365.003	48.948
1911	19.10000	0.000	0.000	0.000	690.582	368.509	47.104
1912	19.11000	0.000	0.000	0.000	692.363	371.763	45.496
1913	19.12000	0.000	0.000	0.000	694.197	374.780	43.956
1914	19.13000	0.000	0.000	0.000	696.062	377.571	42.532
1915	19.14000	0.000	0.000	0.000	697.919	380.202	41.144
1916	19.15000	0.000	0.000	0.000	699.717	382.795	39.883
1917	19.16000	0.000	0.000	0.000	701.264	385.326	38.665
1918	19.17000	0.000	0.000	0.000	702.698	387.913	37.536
1919	19.18000	0.000	0.000	0.000	704.134	390.527	36.323
1920	19.19000	0.000	0.000	0.000	705.411	393.053	35.191
1921	19.20000	0.000	0.000	0.000	706.602	395.399	34.181
1922	19.21000	0.000	0.000	0.000	707.902	397.657	33.069
1923	19.22000	0.000	0.000	0.000	709.075	399.830	32.100
1924	19.23000	0.000	0.000	0.000	710.192	401.875	31.187
1925	19.24000	0.000	0.000	0.000	711.188	403.796	30.347
1926	19.25000	0.000	0.000	0.000	712.179	405.630	29.522
1927	19.26000	0.000	0.000	0.000	713.015	407.262	28.847
1928	19.27000	0.000	0.000	0.000	714.018	408.836	28.109
1929	19.28000	0.000	0.000	0.000	714.817	410.227	27.491
1930	19.29000	0.000	0.000	0.000	715.572	411.437	26.970
1931	19.30000	0.000	0.000	0.000	716.336	412.511	26.475
1932	19.31000	0.000	0.000	0.000	716.846	413.445	26.158
1933	19.32000	0.000	0.000	0.000	717.355	414.242	25.880
1934	19.33000	0.000	0.000	0.000	718.000	414.925	25.532
1935	19.34000	0.000	0.000	0.000	718.420	415.434	25.383
1936	19.35000	0.000	0.000	0.000	718.888	415.834	25.222
1937	19.36000	0.000	0.000	0.000	719.304	416.052	25.143
1938	19.37000	0.000	0.000	0.000	719.638	416.237	25.127
1939	19.38000	0.000	0.000	0.000	719.850	416.360	25.211
1940	19.39000	0.000	0.000	0.000	719.901	416.454	25.360
1941	19.40000	0.000	0.000	0.000	719.973	416.563	25.563
1942	19.41000	0.000	0.000	0.000	720.002	416.630	25.751
1943	19.42000	0.000	0.000	0.000	720.104	416.716	25.882
1944	19.43000	0.000	0.000	0.000	720.141	416.784	26.085
1945	19.44000	0.000	0.000	0.000	720.221	416.818	26.195
1946	19.45000	0.000	0.000	0.000	720.238	416.769	26.323
1947	19.46000	0.000	0.000	0.000	720.248	416.593	26.525
1948	19.47000	0.000	0.000	0.000	720.257	416.430	26.636
1949	19.48000	0.000	0.000	0.000	720.169	416.206	26.791
1950	19.49000	0.000	0.000	0.000	719.907	415.954	27.052
1951	19.50000	0.000	0.000	0.000	719.556	415.743	27.367
1952	19.51000	0.000	0.000	0.000	719.282	415.540	27.617
1953	19.52000	0.000	0.000	0.000	719.060	415.253	27.886
1954	19.53000	0.000	0.000	0.000	718.939	414.926	28.087
1955	19.54000	0.000	0.000	0.000	718.841	414.538	28.350
1956	19.55000	0.000	0.000	0.000	718.870	414.137	28.622
1957	19.56000	0.000	0.000	0.000	718.942	413.664	28.906
1958	19.57000	0.000	0.000	0.000	719.071	413.210	29.103
1959	19.58000	0.000	0.000	0.000	719.165	412.777	29.328
1960	19.59000	0.000	0.000	0.000	719.216	412.354	29.513
1961	19.60000	0.000	0.000	0.000	719.137	412.031	29.660
1962	19.61000	0.000	0.000	0.000	719.046	411.795	29.864
1963	19.62000	0.000	0.000	0.000	718.928	411.683	29.888
1964	19.63000	0.000	0.000	0.000	718.782	411.568	29.968
1965	19.64000	0.000	0.000	0.000	718.735	411.513	30.003
1966	19.65000	0.000	0.000	0.000	718.608	411.463	30.111
1967	19.66000	0.000	0.000	0.000	718.717	411.523	29.980
1968	19.67000	0.000	0.000	0.000	718.635	411.528	30.010
1969	19.68000	0.000	0.000	0.000	718.534	411.644	29.969
1970	19.69000	0.000	0.000	0.000	718.154	411.759	30.005
1971	19.70000	0.000	0.000	0.000	717.840	412.056	29.846
1972	19.71000	0.000	0.000	0.000	717.390	412.390	29.751
1973	19.72000	0.000	0.000	0.000	716.963	412.727	29.702
1974	19.73000	0.000	0.000	0.000	716.490	413.059	29.706
1975	19.74000	0.000	0.000	0.000	716.200	413.422	29.619
1976	19.75000	0.000	0.000	0.000	716.012	413.732	29.529
1977	19.76000	0.000	0.000	0.000	715.903	413.949	29.495
1978	19.77000	0.000	0.000	0.000	715.838	414.081	29.464
1979	19.78000	0.000	0.000	0.000	715.759	414.074	29.558
1980	19.79000	0.000	0.000	0.000	715.836	414.094	29.545
1981	19.80000	0.000	0.000	0.000	715.790	414.052	29.631
1982	19.81000	0.000	0.000	0.000	715.744	413.984	29.658
1983	19.82000	0.000	0.000	0.000	715.726	413.982	29.656
1984	19.83000	0.000	0.000	0.000	715.729	414.071	29.642
1985	19.84000	0.000	0.000	0.000	715.659	414.127	29.634
1986	19.85000	0.000	0.000	0.000	715.616	414.287	29.636
1987	19.86000	0.000	0.000	0.000	715.703	414.511	29.482
1988	19.87000	0.000	0.000	0.000	715.704	414.700	29.418
1989	19.88000	0.000	0.000	0.000	715.767	414.934	29.298
1990	19.89000	0.000	0.000	0.000	715.820	415.179	29.171
1991	19.90000	0.000	0.000	0.000	715.884	415.476	29.005
1992	19.91000	0.000	0.000	0.000	715.948	415.811	28.879
1993	19.92000	0.000	0.000	0.000	715.941	416.076	28.763
1994	19.93000	0.000	0.000	0.000	716.012	416.374	28.613
1995	19.94000	0.000	0.000	0.000	716.098	416.673	28.493
1996	19.95000	0.000	0.000	0.000	716.165	416.907	28.416
1997	19.96000	0.000	0.000	0.000	716.325	417.163	28.283
1998	19.97000	0.000	0.000	0.000	716.420	417.426	28.183
1999	19.98000	0.000	0.000	0.000	716.531	417.652	28.073
2000	19.99000	0.000	0.000	0.000	716.571	417.909	27.967
2001	20.00000	0.000	0.000	0.000	716.563	418.174	27.923
2002	20.01000	0.000	0.000	0.000	716.590	418.506	27.794
2003	20.02000	0.000	0.000	0.000	716.564	418.770	27.748
2004	20.03000	0.000	0.000	0.000	716.542	419.034	27.674
2005	20.04000	0.000	0.000	0.000	716.561	419.327	27.562
2006	20.05000	0.000	0.000	0.000	716.571	419.645	27.494
2007	20.06000	0.000	0.000	0.000	716.550	419.896	27.412
2008	20.07000	0.000	0.000	0.000	716.587	420.179	27.322
2009	20.08000	0.000	0.000	0.000	716.527	420.350	27.303
2010	20.09000	0.000	0.000	0.000	716.555	420.607	27.210
2011	20.10000	0.000	0.000	0.000	716.505	420.767	27.197
2012	20.11000	0.000	0.000	0.000	716.527	420.946	27.127
2013	20.12000	0.000	0.000	0.000	716.449	421.091	27.118
2014	20.13000	0.000	0.000	0.000	716.404	421.239	27.141
2015	20.14000	0.000	0.000	0.000	716.357	421.361	27.133
2016	20.15000	0.000	0.000	0.000	716.365	421.514	27.117
2017	20.16000	0.000	0.000	0.000	716.293	421.609	27.176
2018	20.17000	0.000	0.000	0.000	716.193	421.675	27.232
2019	20.18000	0.000	0.000	0.000	716.140	421.784	27.272
2020	20.19000	0.000	0.000	0.000	716.076	421.892	27.327
2021	20.20000	0.000	0.000	0.000	716.006	421.962	27.370
2022	20.21000	0.000	0.000	0.000	715.952	422.096	27.399
2023	20.22000	0.000	0.000	0.000	715.919	422.182	27.453
2024	20.23000	0.000	0.000	0.000	715.886	422.305	27.403
2025	20.24000	0.000	0.000	0.000	715.869	422.431	27.383
2026	20.25000	0.000	0.000	0.000	715.779	422.549	27.400
2027	20.26000	0.000	0.000	0.000	715.750	422.705	27.384
2028	20.27000	0.000	0.000	0.000	715.656	422.778	27.459
2029	20.28000	0.000	0.000	0.000	715.665	422.931	27.371
2030	20.29000	0.000	0.000	0.000	715.666	423.096	27.319
2031	20.30000	0.000	0.000	0.000	715.667	423.211	27.321
2032	20.31000	0.000	0.000	0.000	715.645	423.335	27.330
2033	20.32000	0.000	0.000	0.000	715.658	423.464	27.298
2034	20.33000	0.000	0.000	0.000	715.678	423.656	27.236
2035	20.34000	0.000	0.000	0.000	715.670	423.770	27.222
2036	20.35000	0.000	0.000	0.000	715.751	423.975	27.140
2037	20.36000	0.000	0.000	0.000	715.742	424.044	27.156
2038	20.37000	0.000	0.000	0.000	715.793	424.150	27.140
2039	20.38000	0.000	0.000	0.000	715.895	424.249	27.106
2040	20.39000	0.000	0.000	0.000	715.942	424.318	27.079
2041	20.40000	0.000	0.000	0.000	715.978	424.423	27.104
2042	20.41000	0.000	0.000	0.000	715.973	424.543	27.066
2043	20.42000	0.000	0.000	0.000	715.964	424.663	27.058
2044	20.43000	0.000	0.000	0.000	715.983	424.779	27.061
2045	20.44000	0.000	0.000	0.000	716.027	424.898	27.082
2046	20.45000	0.000	0.000	0.000	716.062	424.990	27.056
2047	20.46000	0.000	0.000	0.000	716.136	425.074	27.025
2048	20.47000	0.000	0.000	0.000	716.206	425.119	27.056
2049	20.48000	0.000	0.000	0.000	716.237	425.160	27.083
2050	20.49000	0.000	0.000	0.000	716.326	425.182	27.128
2051	20.50000	0.000	0.000	0.000	716.409	425.241	27.125
2052	20.51000	0.000	0.000	0.000	716.402	425.228	27.202
2053	20.52000	0.000	0.000	0.000	716.481	425.261	27.241
2054	20.53000	0.000	0.000	0.000	716.523	425.265	27.288
2055	20.54000	0.000	0.000	0.000	716.644	425.366	27.255
2056	20.55000	0.000	0.000	0.000	716.604	425.400	27.320
2057	20.56000	0.000	0.000	0.000	716.675	425.522	27.284
2058	20.57000	0.000	0.000	0.000	716.629	425.632	27.268
2059	20.58000	0.000	0.000	0.000	716.641	425.747	27.257
2060	20.59000	0.000	0.000	0.000	716.588	425.856	27.297
2061	20.60000	0.000	0.000	0.000	716.525	425.971	27.254
2062	20.61000	0.000	0.000	0.000	716.556	426.146	27.195
2063	20.62000	0.000	0.000	0.000	716.514	426.262	27.154
2064	20.63000	0.000	0.000	0.000	716.469	426.366	27.134
2065	20.64000	0.000	0.000	0.000	716.430	426.464	27.153
2066	20.65000	0.000	0.000	0.000	716.451	426.606	27.116
2067	20.66000	0.000	0.000	0.000	716.412	426.767	27.162
2068	20.67000	0.000	0.000	0.000	716.332	426.925	27.161
2069	20.68000	0.000	0.000	0.000	716.304	427.151	27.148
2070	20.69000	0.000	0.000	0.000	716.312	427.419	27.062
2071	20.70000	0.000	0.000	0.000	716.319	427.687	26.976
2072	20.71000	0.000	0.000	0.000	716.213	427.918	26.964
2073	20.72000	0.000	0.000	0.000	716.228	428.212	26.808
2074	20.73000	0.000	0.000	0.000	716.199	428.464	26.711
2075	20.74000	0.000	0.000	0.000	716.173	428.703	26.678
2076	20.75000	0.000	0.000	0.000	716.212	428.987	26.559
2077	20.76000	0.000	0.000	0.000	716.262	429.234	26.460
2078	20.77000	0.000	0.000	0.000	716.219	429.485	26.404
2079	20.78000	0.000	0.000	0.000	716.256	429.807	26.281
2080	20.79000	0.000	0.000	0.000	716.342	430.172	26.115
2081	20.80000	0.000	0.000	0.000	716.310	430.488	26.000
2082	20.81000	0.000	0.000	0.000	716.367	430.850	25.846
2083	20.82000	0.000	0.000	0.000	716.356	431.155	25.724
2084	20.83000	0.000	0.000	0.000	716.394	431.490	25.581
2085	20.84000	0.000	0.000	0.000	716.496	431.832	25.385
2086	20.85000	0.000	0.000	0.000	716.676	432.194	25.174
2087	20.86000	0.000	0.000	0.000	716.785	432.537	24.994
2088	20.87000	0.000	0.000	0.000	716.948	432.949	24.801
2089	20.88000	0.000	0.000	0.000	717.177	433.405	24.595
2090	20.89000	0.000	0.000	0.000	717.317	433.802	24.449
2091	20.90000	0.000	0.000	0.000	717.526	434.283	24.229
2092	20.91000	0.000	0.000	0.000	717.738	434.751	24.001
2093	20.92000	0.000	0.000	0.000	718.006	435.289	23.732
2094	20.93000	0.000	0.000	0.000	718.152	435.776	23.544
2095	20.94000	0.000	0.000	0.000	718.437	436.328	23.212
2096	20.95000	0.000	0.000	0.000	718.643	436.848	22.915
2097	20.96000	0.000	0.000	0.000	718.896	437.385	22.615
2098	20.97000	0.000	0.000	0.000	719.127	437.920	22.343
2099	20.98000	0.000	0.000	0.000	719.352	438.441	22.047
2100	20.99000	0.000	0.000	0.000	719.540	438.933	21.833
2101	21.00000	0.000	0.000	0.000	719.747	439.492	21.575
2102	21.01000	0.000	0.000	0.000	719.896	440.032	21.333
2103	21.02000	0.000	0.000	0.000	720.131	440.607	21.071
2104	21.03000	0.000	0.000	0.000	720.298	441.136	20.850
2105	21.04000	0.000	0.000	0.000	720.575	441.702	20.583
2106	21.05000	0.000	0.000	0.000	720.765	442.208	20.348
2107	21.06000	0.000	0.000	0.000	720.997	442.758	20.055
2108	21.07000	0.000	0.000	0.000	721.174	443.250	19.854
2109	21.08000	0.000	0.000	0.000	721.319	443.765	19.579
2110	21.09000	0.000	0.000	0.000	721.400	444.300	19.344
2111	21.10000	0.000	0.000	0.000	721.378	444.851	19.146
2112	21.11000	0.000	0.000	0.000	721.326	445.424	18.946
2113	21.12000	0.000	0.000	0.000	721.274	446.011	18.726
2114	21.13000	0.000	0.000	0.000	721.266	446.615	18.459
2115	21.14000	0.000	0.000	0.000	721.166	447.171	18.335
2116	21.15000	0.000	0.000	0.000	721.169	447.738	18.088
2117	21.16000	0.000	0.000	0.000	721.174	448.331	17.873
2118	21.17000	0.000	0.000	0.000	721.104	448.853	17.696
2119	21.18000	0.000	0.000	0.000	720.986	449.318	17.555
2120	21.19000	0.000	0.000	0.000	720.896	449.863	17.364
2121	21.20000	0.000	0.000	0.000	720.762	450.366	17.232
2122	21.21000	0.000	0.000	0.000	720.586	450.877	17.133
2123	21.22000	0.000	0.000	0.000	720.456	451.406	16.960
2124	21.23000	0.000	0.000	0.000	720.355	451.925	16.795
2125	21.24000	0.000	0.000	0.000	720.281	452.512	16.601
2126	21.25000	0.000	0.000	0.000	720.194	453.045	16.474
2127	21.26000	0.000	0.000	0.000	720.143	453.634	16.326
2128	21.27000	0.000	0.000	0.000	720.131	454.201	16.194
2129	21.28000	0.000	0.000	0.000	720.161	454.747	16.050
2130	21.29000	0.000	0.000	0.000	720.107	455.259	15.895
2131	21.30000	0.000	0.000	0.000	720.079	455.760	15.779
2132	21.31000	0.000	0.000	0.000	720.110	456.229	15.598
2133	21.32000	0.000	0.000	0.000	720.152	456.725	15.392
2134	21.33000	0.000	0.000	0.000	720.154	457.139	15.249
2135	21.34000	0.000	0.000	0.000	720.256	457.551	15.078
2136	21.35000	0.000	0.000	0.000	720.346	457.948	14.867
2137	21.36000	0.000	0.000	0.000	720.449	458.308	14.721
2138	21.37000	0.000	0.000	0.000	720.599	458.621	14.546
2139	21.38000	0.000	0.000	0.000	720.787	458.938	14.374
2140	21.39000	0.000	0.000	0.000	720.919	459.185	14.243
2141	21.40000	0.000	0.000	0.000	721.057	459.393	14.161
2142	21.41000	0.000	0.000	0.000	721.153	459.596	14.105
2143	21.42000	0.000	0.000	0.000	721.319	459.821	13.946
2144	21.43000	0.000	0.000	0.000	721.464	460.004	13.818
2145	21.44000	0.000	0.000	0.000	721.598	460.121	13.751
2146	21.45000	0.000	0.000	0.000	721.722	460.159	13.662
2147	21.46000	0.000	0.000	0.000	721.785	460.153	13.630
2148	21.47000	0.000	0.000	0.000	721.842	460.043	13.560
2149	21.48000	0.000	0.000	0.000	721.801	459.780	13.595
2150	21.49000	0.000	0.000	0.000	721.824	459.420	13.657
2151	21.50000	0.000	0.000	0.000	721.860	458.919	13.716
2152	21.51000	0.000	0.000	0.000	721.659	458.174	13.963
2153	21.52000	0.000	0.000	0.000	721.403	457.307	14.203
2154	21.53000	0.000	0.000	0.000	720.718	456.127	14.668
2155	21.54000	0.000	0.000	0.000	719.573	454.799	15.199
2156	21.55000	0.000	0.000	0.000	717.793	453.085	16.036
2157	21.56000	0.000	0.000	0.000	715.160	450.871	17.307
2158	21.57000	0.000	0.000	0.000	711.912	447.848	18.949
2159	21.58000	0.000	0.000	0.000	707.786	443.624	21.420
2160	21.59000	0.000	0.000	0.000	702.957	438.123	24.687
2161	21.60000	0.000	0.000	0.000	697.151	431.238	29.112
2162	21.61000	0.000	0.000	0.000	690.754	422.946	34.443
2163	21.62000	0.000	0.000	0.000	683.669	413.299	40.948
2164	21.63000	0.000	0.000	0.000	676.163	402.461	48.583
2165	21.64000	0.000	0.000	0.000	668.291	390.444	57.443
2166	21.65000	0.000	0.000	0.000	660.110	377.380	67.548
2167	21.66000	0.000	0.000	0.000	651.635	363.440	78.928
2168	21.67000	0.000	0.000	0.000	642.763	348.820	91.808
2169	21.68000	0.000	0.000	0.000	633.573	333.689	106.043
2170	21.69000	0.000	0.000	0.000	624.350	318.410	121.450
2171	21.70000	0.000	0.000	0.000	614.960	303.039	138.201
2172	21.71000	0.000	0.000	0.000	605.603	287.678	156.120
2173	21.72000	0.000	0.000	0.000	596.457	272.685	175.106
2174	21.73000	0.000	0.000	0.000	587.358	258.033	195.112
2175	21.74000	0.000	0.000	0.000	578.650	243.875	215.873
2176	21.75000	0.000	0.000	0.000	570.252	230.268	237.396
2177	21.76000	0.000	0.000	0.000	562.319	217.381	259.549
2178	21.77000	0.000	0.000	0.000	554.748	205.113	282.341
2179	21.78000	0.000	0.000	0.000	547.776	193.615	305.447
2180	21.79000	0.000	0.000	0.000	541.448	182.972	328.885
2181	21.80000	0.000	0.000	0.000	535.531	173.245	352.517
2182	21.81000	0.000	0.000	0.000	530.184	164.491	376.111
2183	21.82000	0.000	0.000	0.000	525.178	156.623	399.716
2184	21.83000	0.000	0.000	0.000	520.745	149.599	423.118
2185	21.84000	0.000	0.000	0.000	516.799	143.231	446.300
2186	21.85000	0.000	0.000	0.000	513.321	137.484	469.076
2187	21.86000	0.000	0.000	0.000	510.368	132.374	491.381
2188	21.87000	0.000	0.000	0.000	507.802	127.847	513.080
2189	21.88000	0.000	0.000	0.000	505.561	123.959	534.125
2190	21.89000	0.000	0.000	0.000	503.436	120.602	554.560
2191	21.90000	0.000	0.000	0.000	501.569	117.920	574.225
2192	21.91000	0.000	0.000	0.000	499.938	115.758	593.125
2193	21.92000	0.000	0.000	0.000	498.521	114.069	611.237
2194	21.93000	0.000	0.000	0.000	497.401	112.759	628.538
2195	21.94000	0.000	0.000	0.000	496.642	111.728	644.840
2196	21.95000	0.000	0.000	0.000	496.048	110.942	660.207
2197	21.96000	0.000	0.000	0.000	495.669	110.346	674.540
2198	21.97000	0.000	0.000	0.000	495.330	109.926	687.948
2199	21.98000	0.000	0.000	0.000	495.159	109.640	700.314
2200	21.99000	0.000	0.000	0.000	495.140	109.437	711.723
2201	22.00000	0.000	0.000	0.000	495.142	109.223	722.273
2202	22.01000	0.000	0.000	0.000	495.306	109.044	731.861
2203	22.02000	0.000	0.000	0.000	495.577	108.825	740.646
2204	22.03000	0.000	0.000	0.000	495.850	108.569	748.570
2205	22.04000	0.000	0.000	0.000	496.187	108.276	755.726
2206	22.05000	0.000	0.000	0.000	496.475	107.974	762.146
2207	22.06000	0.000	0.000	0.000	496.788	107.600	767.871
